date	time	build	subject	blocknum	blockcode	trialnum	trialcode	response	correct	latency	stimulusitem1
121318	09:55	3.0.6.0	1	1	consenso	1	consenso	Disponibile a partecipare alla ricerca nei termini sopra indicati	1	27280	0
121318	09:55	3.0.6.0	1	19	WhiteBlack	1	reminder	57	1	4016	Controlla le categorie - premi SPAZIO per cominciare
121318	09:55	3.0.6.0	1	19	WhiteBlack	2	PlainWhiteleft	18	1	924	wf6.jpg
121318	09:55	3.0.6.0	1	19	WhiteBlack	4	PlainBlackright	23	1	637	bm56.jpg
121318	09:55	3.0.6.0	1	19	WhiteBlack	6	PlainWhiteleft	18	1	732	wm1.jpg
121318	09:55	3.0.6.0	1	19	WhiteBlack	8	PlainBlackright	23	1	550	bf14.jpg
121318	09:55	3.0.6.0	1	19	WhiteBlack	10	PlainBlackright	23	1	588	bm14.jpg
121318	09:55	3.0.6.0	1	19	WhiteBlack	12	PlainBlackright	23	1	736	bm23.jpg
121318	09:55	3.0.6.0	1	19	WhiteBlack	14	PlainWhiteleft	18	1	612	wf3.jpg
121318	09:55	3.0.6.0	1	19	WhiteBlack	16	PlainWhiteleft	23	0	837	wm6.jpg
121318	09:55	3.0.6.0	1	19	WhiteBlack	18	PlainWhiteleft	18	1	1380	wf2.jpg
121318	09:55	3.0.6.0	1	19	WhiteBlack	20	PlainWhiteleft	18	1	1255	wm4.jpg
121318	09:55	3.0.6.0	1	19	WhiteBlack	22	PlainBlackright	23	1	704	bf56.jpg
121318	09:55	3.0.6.0	1	19	WhiteBlack	24	PlainBlackright	23	1	636	bf23.jpg
121318	09:55	3.0.6.0	1	19	WhiteBlack	26	PlainBlackright	23	1	762	bf14.jpg
121318	09:55	3.0.6.0	1	19	WhiteBlack	28	PlainBlackright	23	1	641	bm14.jpg
121318	09:55	3.0.6.0	1	19	WhiteBlack	30	PlainBlackright	23	1	1096	bf56.jpg
121318	09:55	3.0.6.0	1	19	WhiteBlack	32	PlainBlackright	23	1	1033	bm56.jpg
121318	09:55	3.0.6.0	1	19	WhiteBlack	34	PlainWhiteleft	18	1	967	wm4.jpg
121318	09:55	3.0.6.0	1	19	WhiteBlack	36	PlainWhiteleft	18	1	824	wf2.jpg
121318	09:55	3.0.6.0	1	19	WhiteBlack	38	PlainWhiteleft	18	1	1139	wm1.jpg
121318	09:55	3.0.6.0	1	19	WhiteBlack	40	PlainWhiteleft	18	1	719	wf3.jpg
121318	09:55	3.0.6.0	1	21	badgood	1	reminder	57	1	3234	Controlla le categorie - premi SPAZIO per cominciare
121318	09:55	3.0.6.0	1	21	badgood	2	Plainbadleft	18	1	1090	cattivo
121318	09:55	3.0.6.0	1	21	badgood	4	Plainbadleft	18	1	675	fallimento
121318	09:55	3.0.6.0	1	21	badgood	6	Plaingoodright	23	1	455	pace
121318	09:55	3.0.6.0	1	21	badgood	8	Plainbadleft	18	1	553	disastro
121318	09:55	3.0.6.0	1	21	badgood	10	Plaingoodright	23	1	509	amore
121318	09:55	3.0.6.0	1	21	badgood	12	Plaingoodright	23	1	561	ridere
121318	09:55	3.0.6.0	1	21	badgood	14	Plainbadleft	23	0	424	nocivo
121318	09:55	3.0.6.0	1	21	badgood	16	Plaingoodright	18	0	285	buono
121318	09:55	3.0.6.0	1	21	badgood	18	Plaingoodright	23	1	1036	gioia
121318	09:55	3.0.6.0	1	21	badgood	20	Plaingoodright	23	1	1071	felicità
121318	09:55	3.0.6.0	1	21	badgood	22	Plainbadleft	18	1	659	male
121318	09:55	3.0.6.0	1	21	badgood	24	Plaingoodright	23	1	540	piacere
121318	09:55	3.0.6.0	1	21	badgood	26	Plainbadleft	18	1	1014	terribile
121318	09:55	3.0.6.0	1	21	badgood	28	Plainbadleft	18	1	695	odio
121318	09:55	3.0.6.0	1	21	badgood	30	Plainbadleft	18	1	808	orribile
121318	09:55	3.0.6.0	1	21	badgood	32	Plaingoodright	23	1	631	gloria
121318	09:55	3.0.6.0	1	21	badgood	34	Plainbadleft	18	1	691	fallimento
121318	09:55	3.0.6.0	1	21	badgood	36	Plainbadleft	18	1	532	disastro
121318	09:55	3.0.6.0	1	21	badgood	38	Plaingoodright	23	1	590	ridere
121318	09:55	3.0.6.0	1	21	badgood	40	Plaingoodright	23	1	650	piacere
121318	09:55	3.0.6.0	1	23	PracticeWhitebad	1	reminder	57	1	5446	Controlla le categorie - premi SPAZIO per cominciare
121318	09:55	3.0.6.0	1	23	PracticeWhitebad	2	PlainWhiteleft	18	1	725	wm4.jpg
121318	09:55	3.0.6.0	1	23	PracticeWhitebad	4	Plainbadleft	18	1	1052	fallimento
121318	09:55	3.0.6.0	1	23	PracticeWhitebad	6	PlainBlackright	23	1	1517	bm23.jpg
121318	09:55	3.0.6.0	1	23	PracticeWhitebad	8	Plainbadleft	18	1	767	male
121318	09:55	3.0.6.0	1	23	PracticeWhitebad	10	PlainWhiteleft	18	1	985	wf6.jpg
121318	09:55	3.0.6.0	1	23	PracticeWhitebad	12	PlainBlackright	23	1	708	bm56.jpg
121318	09:55	3.0.6.0	1	23	PracticeWhitebad	14	Plainbadleft	18	1	689	odio
121318	09:55	3.0.6.0	1	23	PracticeWhitebad	16	Plainbadleft	18	1	719	terribile
121318	09:55	3.0.6.0	1	23	PracticeWhitebad	18	Plaingoodright	23	1	550	pace
121318	09:55	3.0.6.0	1	23	PracticeWhitebad	20	PlainBlackright	23	1	1101	bf56.jpg
121318	09:55	3.0.6.0	1	23	PracticeWhitebad	22	Plaingoodright	23	1	918	buono
121318	09:55	3.0.6.0	1	23	PracticeWhitebad	24	Plainbadleft	18	1	812	cattivo
121318	09:55	3.0.6.0	1	23	PracticeWhitebad	26	Plaingoodright	23	1	717	ridere
121318	09:55	3.0.6.0	1	23	PracticeWhitebad	28	PlainBlackright	23	1	1028	bf14.jpg
121318	09:55	3.0.6.0	1	23	PracticeWhitebad	30	Plaingoodright	23	1	823	amore
121318	09:55	3.0.6.0	1	23	PracticeWhitebad	32	PlainBlackright	23	1	843	bm14.jpg
121318	09:55	3.0.6.0	1	23	PracticeWhitebad	34	PlainWhiteleft	18	1	764	wf2.jpg
121318	09:55	3.0.6.0	1	23	PracticeWhitebad	36	Plaingoodright	23	1	651	piacere
121318	09:55	3.0.6.0	1	23	PracticeWhitebad	38	PlainWhiteleft	18	1	1076	wm1.jpg
121318	09:55	3.0.6.0	1	23	PracticeWhitebad	40	PlainWhiteleft	18	1	586	wf3.jpg
121318	09:55	3.0.6.0	1	24	TestWhitebad	1	reminder1	57	1	4441	Riposati se ne senti il bisogno - premi SPAZIO per cominciare
121318	09:55	3.0.6.0	1	24	TestWhitebad	2	Plainbadleft	18	1	866	male
121318	09:55	3.0.6.0	1	24	TestWhitebad	4	Plaingoodright	23	1	478	gloria
121318	09:55	3.0.6.0	1	24	TestWhitebad	6	PlainBlackright	23	1	677	bm23.jpg
121318	09:55	3.0.6.0	1	24	TestWhitebad	8	PlainBlackright	23	1	476	bm14.jpg
121318	09:55	3.0.6.0	1	24	TestWhitebad	10	Plainbadleft	18	1	659	fallimento
121318	09:55	3.0.6.0	1	24	TestWhitebad	12	Plaingoodright	23	1	540	pace
121318	09:55	3.0.6.0	1	24	TestWhitebad	14	Plainbadleft	18	1	686	cattivo
121318	09:55	3.0.6.0	1	24	TestWhitebad	16	PlainWhiteleft	18	1	831	wf2.jpg
121318	09:55	3.0.6.0	1	24	TestWhitebad	18	PlainBlackright	18	0	445	bf56.jpg
121318	09:55	3.0.6.0	1	24	TestWhitebad	20	PlainBlackright	23	1	671	bm56.jpg
121318	09:55	3.0.6.0	1	24	TestWhitebad	22	Plaingoodright	23	1	667	piacere
121318	09:55	3.0.6.0	1	24	TestWhitebad	24	PlainBlackright	23	1	783	bf23.jpg
121318	09:55	3.0.6.0	1	24	TestWhitebad	26	PlainWhiteleft	18	1	603	wm6.jpg
121318	09:55	3.0.6.0	1	24	TestWhitebad	28	PlainWhiteleft	18	1	860	wf6.jpg
121318	09:55	3.0.6.0	1	24	TestWhitebad	30	Plainbadleft	18	1	542	disastro
121318	09:55	3.0.6.0	1	24	TestWhitebad	32	PlainWhiteleft	18	1	1474	wm1.jpg
121318	09:55	3.0.6.0	1	24	TestWhitebad	34	PlainWhiteleft	18	1	600	wf3.jpg
121318	09:55	3.0.6.0	1	24	TestWhitebad	36	Plaingoodright	23	1	542	felicità
121318	09:55	3.0.6.0	1	24	TestWhitebad	38	PlainWhiteleft	18	1	595	wm4.jpg
121318	09:55	3.0.6.0	1	24	TestWhitebad	40	Plaingoodright	23	1	583	buono
121318	09:55	3.0.6.0	1	24	TestWhitebad	42	Plaingoodright	23	1	571	amore
121318	09:55	3.0.6.0	1	24	TestWhitebad	44	PlainBlackright	23	1	629	bf14.jpg
121318	09:55	3.0.6.0	1	24	TestWhitebad	46	PlainWhiteleft	18	1	633	wm6.jpg
121318	09:55	3.0.6.0	1	24	TestWhitebad	48	PlainBlackright	23	1	480	bf14.jpg
121318	09:55	3.0.6.0	1	24	TestWhitebad	50	Plainbadleft	18	1	559	orribile
121318	09:55	3.0.6.0	1	24	TestWhitebad	52	PlainBlackright	23	1	677	bm23.jpg
121318	09:55	3.0.6.0	1	24	TestWhitebad	54	PlainWhiteleft	18	1	708	wm1.jpg
121318	09:55	3.0.6.0	1	24	TestWhitebad	56	PlainBlackright	23	1	688	bm14.jpg
121318	09:55	3.0.6.0	1	24	TestWhitebad	58	Plaingoodright	23	1	727	ridere
121318	09:55	3.0.6.0	1	24	TestWhitebad	60	Plaingoodright	23	1	526	gioia
121318	09:55	3.0.6.0	1	24	TestWhitebad	62	Plainbadleft	18	1	509	terribile
121318	09:55	3.0.6.0	1	24	TestWhitebad	64	Plainbadleft	23	0	433	odio
121318	09:55	3.0.6.0	1	24	TestWhitebad	66	Plainbadleft	18	1	709	nocivo
121318	09:55	3.0.6.0	1	24	TestWhitebad	68	Plaingoodright	23	1	577	pace
121318	09:55	3.0.6.0	1	24	TestWhitebad	70	Plaingoodright	23	1	619	buono
121318	09:55	3.0.6.0	1	24	TestWhitebad	72	PlainBlackright	23	1	887	bf23.jpg
121318	09:55	3.0.6.0	1	24	TestWhitebad	74	PlainWhiteleft	18	1	760	wf2.jpg
121318	09:55	3.0.6.0	1	24	TestWhitebad	76	Plainbadleft	18	1	591	orribile
121318	09:55	3.0.6.0	1	24	TestWhitebad	78	PlainWhiteleft	18	1	597	wf3.jpg
121318	09:55	3.0.6.0	1	24	TestWhitebad	80	Plainbadleft	18	1	692	fallimento
121318	09:55	3.0.6.0	1	26	WhiteBlack2nd	1	reminder	57	1	3036	Controlla le categorie - premi SPAZIO per cominciare
121318	09:55	3.0.6.0	1	26	WhiteBlack2nd	2	PlainWhiteright	23	1	711	wm4.jpg
121318	09:55	3.0.6.0	1	26	WhiteBlack2nd	4	PlainWhiteright	23	1	470	wf3.jpg
121318	09:55	3.0.6.0	1	26	WhiteBlack2nd	6	PlainBlackleft	18	1	557	bf56.jpg
121318	09:55	3.0.6.0	1	26	WhiteBlack2nd	8	PlainBlackleft	18	1	644	bm23.jpg
121318	09:55	3.0.6.0	1	26	WhiteBlack2nd	10	PlainBlackleft	18	1	493	bm56.jpg
121318	09:55	3.0.6.0	1	26	WhiteBlack2nd	12	PlainWhiteright	23	1	511	wf6.jpg
121318	09:55	3.0.6.0	1	26	WhiteBlack2nd	14	PlainWhiteright	23	1	558	wf2.jpg
121318	09:55	3.0.6.0	1	26	WhiteBlack2nd	16	PlainBlackleft	18	1	549	bm14.jpg
121318	09:55	3.0.6.0	1	26	WhiteBlack2nd	18	PlainWhiteright	23	1	500	wm6.jpg
121318	09:55	3.0.6.0	1	26	WhiteBlack2nd	20	PlainBlackleft	18	1	568	bf23.jpg
121318	09:55	3.0.6.0	1	26	WhiteBlack2nd	22	PlainWhiteright	23	1	554	wm1.jpg
121318	09:55	3.0.6.0	1	26	WhiteBlack2nd	24	PlainWhiteright	23	1	529	wm4.jpg
121318	09:55	3.0.6.0	1	26	WhiteBlack2nd	26	PlainBlackleft	18	1	618	bf14.jpg
121318	09:55	3.0.6.0	1	26	WhiteBlack2nd	28	PlainWhiteright	23	1	542	wm6.jpg
121318	09:55	3.0.6.0	1	26	WhiteBlack2nd	30	PlainWhiteright	23	1	635	wm1.jpg
121318	09:55	3.0.6.0	1	26	WhiteBlack2nd	32	PlainBlackleft	18	1	578	bm23.jpg
121318	09:55	3.0.6.0	1	26	WhiteBlack2nd	34	PlainBlackleft	18	1	710	bf14.jpg
121318	09:55	3.0.6.0	1	26	WhiteBlack2nd	36	PlainBlackleft	18	1	660	bf56.jpg
121318	09:55	3.0.6.0	1	26	WhiteBlack2nd	38	PlainWhiteright	23	1	528	wf3.jpg
121318	09:55	3.0.6.0	1	26	WhiteBlack2nd	40	PlainBlackleft	18	1	610	bf23.jpg
121318	09:55	3.0.6.0	1	28	PracticeWhitegood	1	reminder	57	1	3767	Controlla le categorie - premi SPAZIO per cominciare
121318	09:55	3.0.6.0	1	28	PracticeWhitegood	2	PlainBlackleft	18	1	620	bm23.jpg
121318	09:55	3.0.6.0	1	28	PracticeWhitegood	4	Plaingoodright	23	1	749	gloria
121318	09:55	3.0.6.0	1	28	PracticeWhitegood	6	Plainbadleft	18	1	721	disastro
121318	09:55	3.0.6.0	1	28	PracticeWhitegood	8	Plainbadleft	18	1	528	male
121318	09:55	3.0.6.0	1	28	PracticeWhitegood	10	PlainBlackleft	18	1	714	bf14.jpg
121318	09:55	3.0.6.0	1	28	PracticeWhitegood	12	Plainbadleft	18	1	518	terribile
121318	09:55	3.0.6.0	1	28	PracticeWhitegood	14	PlainBlackleft	18	1	644	bf23.jpg
121318	09:55	3.0.6.0	1	28	PracticeWhitegood	16	PlainWhiteright	23	1	574	wm6.jpg
121318	09:55	3.0.6.0	1	28	PracticeWhitegood	18	Plaingoodright	23	1	544	felicità
121318	09:55	3.0.6.0	1	28	PracticeWhitegood	20	Plaingoodright	23	1	548	ridere
121318	09:55	3.0.6.0	1	28	PracticeWhitegood	22	PlainWhiteright	23	1	584	wf6.jpg
121318	09:55	3.0.6.0	1	28	PracticeWhitegood	24	PlainWhiteright	23	1	540	wm1.jpg
121318	09:55	3.0.6.0	1	28	PracticeWhitegood	26	PlainBlackleft	18	1	497	bf56.jpg
121318	09:55	3.0.6.0	1	28	PracticeWhitegood	28	PlainBlackleft	18	1	509	bm14.jpg
121318	09:55	3.0.6.0	1	28	PracticeWhitegood	30	PlainWhiteright	23	1	489	wm4.jpg
121318	09:55	3.0.6.0	1	28	PracticeWhitegood	32	Plainbadleft	18	1	1211	cattivo
121318	09:55	3.0.6.0	1	28	PracticeWhitegood	34	Plaingoodright	23	1	499	amore
121318	09:55	3.0.6.0	1	28	PracticeWhitegood	36	Plainbadleft	18	1	557	odio
121318	09:55	3.0.6.0	1	28	PracticeWhitegood	38	PlainWhiteright	23	1	876	wf2.jpg
121318	09:55	3.0.6.0	1	28	PracticeWhitegood	40	Plaingoodright	23	1	506	piacere
121318	09:55	3.0.6.0	1	29	TestWhitegood	1	reminder1	57	1	1769	Riposati se ne senti il bisogno - premi SPAZIO per cominciare
121318	09:55	3.0.6.0	1	29	TestWhitegood	2	PlainBlackleft	18	1	625	bm23.jpg
121318	09:55	3.0.6.0	1	29	TestWhitegood	4	Plainbadleft	18	1	541	nocivo
121318	09:55	3.0.6.0	1	29	TestWhitegood	6	PlainWhiteright	23	1	625	wm1.jpg
121318	09:55	3.0.6.0	1	29	TestWhitegood	8	PlainBlackleft	18	1	590	bf23.jpg
121318	09:55	3.0.6.0	1	29	TestWhitegood	10	PlainWhiteright	23	1	540	wm6.jpg
121318	09:55	3.0.6.0	1	29	TestWhitegood	12	PlainWhiteright	23	1	632	wf6.jpg
121318	09:55	3.0.6.0	1	29	TestWhitegood	14	PlainBlackleft	18	1	791	bf56.jpg
121318	09:55	3.0.6.0	1	29	TestWhitegood	16	Plaingoodright	23	1	475	gioia
121318	09:55	3.0.6.0	1	29	TestWhitegood	18	PlainWhiteright	23	1	586	wm4.jpg
121318	09:55	3.0.6.0	1	29	TestWhitegood	20	PlainWhiteright	23	1	486	wf3.jpg
121318	09:55	3.0.6.0	1	29	TestWhitegood	22	PlainBlackleft	18	1	568	bf14.jpg
121318	09:55	3.0.6.0	1	29	TestWhitegood	24	Plainbadleft	18	1	495	orribile
121318	09:55	3.0.6.0	1	29	TestWhitegood	26	PlainWhiteright	23	1	865	wf2.jpg
121318	09:55	3.0.6.0	1	29	TestWhitegood	28	Plaingoodright	23	1	549	gloria
121318	09:55	3.0.6.0	1	29	TestWhitegood	30	Plainbadleft	18	1	577	male
121318	09:55	3.0.6.0	1	29	TestWhitegood	32	Plaingoodright	23	1	434	pace
121318	09:55	3.0.6.0	1	29	TestWhitegood	34	Plaingoodright	23	1	543	piacere
121318	09:55	3.0.6.0	1	29	TestWhitegood	36	Plainbadleft	18	1	603	fallimento
121318	09:55	3.0.6.0	1	29	TestWhitegood	38	PlainBlackleft	18	1	796	bm14.jpg
121318	09:55	3.0.6.0	1	29	TestWhitegood	40	Plaingoodright	23	1	531	ridere
121318	09:55	3.0.6.0	1	29	TestWhitegood	42	PlainWhiteright	23	1	669	wm6.jpg
121318	09:55	3.0.6.0	1	29	TestWhitegood	44	PlainWhiteright	23	1	417	wm1.jpg
121318	09:55	3.0.6.0	1	29	TestWhitegood	46	Plaingoodright	23	1	499	felicità
121318	09:55	3.0.6.0	1	29	TestWhitegood	48	PlainBlackleft	23	0	431	bm56.jpg
121318	09:55	3.0.6.0	1	29	TestWhitegood	50	PlainWhiteright	23	1	590	wf3.jpg
121318	09:55	3.0.6.0	1	29	TestWhitegood	52	Plainbadleft	18	1	730	odio
121318	09:55	3.0.6.0	1	29	TestWhitegood	54	Plaingoodright	23	1	555	amore
121318	09:55	3.0.6.0	1	29	TestWhitegood	56	PlainBlackleft	18	1	562	bf23.jpg
121318	09:55	3.0.6.0	1	29	TestWhitegood	58	Plainbadleft	18	1	601	terribile
121318	09:55	3.0.6.0	1	29	TestWhitegood	60	Plainbadleft	18	1	576	cattivo
121318	09:55	3.0.6.0	1	29	TestWhitegood	62	PlainBlackleft	18	1	561	bf56.jpg
121318	09:55	3.0.6.0	1	29	TestWhitegood	64	PlainWhiteright	23	1	600	wf6.jpg
121318	09:55	3.0.6.0	1	29	TestWhitegood	66	Plainbadleft	18	1	543	disastro
121318	09:55	3.0.6.0	1	29	TestWhitegood	68	PlainBlackleft	18	1	619	bm56.jpg
121318	09:55	3.0.6.0	1	29	TestWhitegood	70	Plaingoodright	23	1	669	buono
121318	09:55	3.0.6.0	1	29	TestWhitegood	72	Plaingoodright	23	1	489	gioia
121318	09:55	3.0.6.0	1	29	TestWhitegood	74	Plaingoodright	23	1	355	pace
121318	09:55	3.0.6.0	1	29	TestWhitegood	76	PlainBlackleft	18	1	546	bf14.jpg
121318	09:55	3.0.6.0	1	29	TestWhitegood	78	Plainbadleft	18	1	774	fallimento
121318	09:55	3.0.6.0	1	29	TestWhitegood	80	Plainbadleft	18	1	431	orribile
121318	09:55	3.0.6.0	1	34	badgood	1	reminder	57	1	1772	Controlla le categorie - premi SPAZIO per cominciare
121318	09:55	3.0.6.0	1	34	badgood	2	Plaingoodright	23	1	556	piacere
121318	09:55	3.0.6.0	1	34	badgood	4	Plaingoodright	23	1	475	felicità
121318	09:55	3.0.6.0	1	34	badgood	6	Plainbadleft	23	0	463	terribile
121318	09:55	3.0.6.0	1	34	badgood	8	Plainbadleft	18	1	660	fallimento
121318	09:55	3.0.6.0	1	34	badgood	10	Plaingoodright	23	1	573	pace
121318	09:55	3.0.6.0	1	34	badgood	12	Plainbadleft	18	1	502	disastro
121318	09:55	3.0.6.0	1	34	badgood	14	Plainbadleft	18	1	539	nocivo
121318	09:55	3.0.6.0	1	34	badgood	16	Plainbadleft	18	1	492	odio
121318	09:55	3.0.6.0	1	34	badgood	18	Plaingoodright	23	1	534	amore
121318	09:55	3.0.6.0	1	34	badgood	20	Plaingoodright	23	1	504	buono
121318	09:55	3.0.6.0	1	34	badgood	22	Plainbadleft	18	1	500	orribile
121318	09:55	3.0.6.0	1	34	badgood	24	Plaingoodright	23	1	478	gioia
121318	09:55	3.0.6.0	1	34	badgood	26	Plainbadleft	18	1	1045	cattivo
121318	09:55	3.0.6.0	1	34	badgood	28	Plaingoodright	23	1	611	gloria
121318	09:55	3.0.6.0	1	34	badgood	30	Plaingoodright	23	1	540	ridere
121318	09:55	3.0.6.0	1	34	badgood	32	Plaingoodright	23	1	414	gioia
121318	09:55	3.0.6.0	1	34	badgood	34	Plainbadleft	18	1	600	male
121318	09:55	3.0.6.0	1	34	badgood	36	Plaingoodright	23	1	535	amore
121318	09:55	3.0.6.0	1	34	badgood	38	Plainbadleft	18	1	616	cattivo
121318	09:55	3.0.6.0	1	34	badgood	40	Plainbadleft	18	1	666	fallimento
121318	09:55	3.0.6.0	1	57	demografica	1	sesso	Maschio	1	19185	0
121318	09:55	3.0.6.0	1	57	demografica	1	età	21	1	19185	0
121318	09:55	3.0.6.0	1	57	demografica	1	occupazio	stud	1	19185	0
121318	09:55	3.0.6.0	1	57	demografica	1	edu	sup	1	19185	0
121318	09:55	3.0.6.0	1	57	demografica	4	pol1	3	1	28866	0
121318	09:55	3.0.6.0	1	57	demografica	4	pol2	2	1	28866	0
121418	10:02	3.0.6.0	2	1	consenso	1	consenso	Disponibile a partecipare alla ricerca nei termini sopra indicati	1	17872	0
121418	10:02	3.0.6.0	2	19	WhiteBlack2nd	1	reminder	57	1	3699	Controlla le categorie - premi SPAZIO per cominciare
121418	10:02	3.0.6.0	2	19	WhiteBlack2nd	2	PlainBlackleft	18	1	3130	bf23.jpg
121418	10:02	3.0.6.0	2	19	WhiteBlack2nd	4	PlainBlackleft	18	1	568	bf14.jpg
121418	10:02	3.0.6.0	2	19	WhiteBlack2nd	6	PlainWhiteright	18	0	473	wm1.jpg
121418	10:02	3.0.6.0	2	19	WhiteBlack2nd	8	PlainBlackleft	18	1	1168	bm23.jpg
121418	10:02	3.0.6.0	2	19	WhiteBlack2nd	10	PlainWhiteright	23	1	585	wm6.jpg
121418	10:02	3.0.6.0	2	19	WhiteBlack2nd	12	PlainWhiteright	23	1	677	wf6.jpg
121418	10:02	3.0.6.0	2	19	WhiteBlack2nd	14	PlainWhiteright	23	1	684	wf3.jpg
121418	10:02	3.0.6.0	2	19	WhiteBlack2nd	16	PlainBlackleft	18	1	565	bm14.jpg
121418	10:02	3.0.6.0	2	19	WhiteBlack2nd	18	PlainBlackleft	18	1	751	bm56.jpg
121418	10:02	3.0.6.0	2	19	WhiteBlack2nd	20	PlainWhiteright	23	1	573	wf2.jpg
121418	10:02	3.0.6.0	2	19	WhiteBlack2nd	22	PlainBlackleft	18	1	551	bf56.jpg
121418	10:02	3.0.6.0	2	19	WhiteBlack2nd	24	PlainWhiteright	23	1	614	wm4.jpg
121418	10:02	3.0.6.0	2	19	WhiteBlack2nd	26	PlainWhiteright	23	1	983	wf3.jpg
121418	10:02	3.0.6.0	2	19	WhiteBlack2nd	28	PlainWhiteright	23	1	731	wm1.jpg
121418	10:02	3.0.6.0	2	19	WhiteBlack2nd	30	PlainWhiteright	23	1	636	wm4.jpg
121418	10:02	3.0.6.0	2	19	WhiteBlack2nd	32	PlainBlackleft	18	1	587	bf23.jpg
121418	10:02	3.0.6.0	2	19	WhiteBlack2nd	34	PlainBlackleft	18	1	591	bm56.jpg
121418	10:02	3.0.6.0	2	19	WhiteBlack2nd	36	PlainWhiteright	23	1	822	wf6.jpg
121418	10:02	3.0.6.0	2	19	WhiteBlack2nd	38	PlainBlackleft	18	1	642	bm23.jpg
121418	10:02	3.0.6.0	2	19	WhiteBlack2nd	40	PlainBlackleft	18	1	505	bm14.jpg
121418	10:02	3.0.6.0	2	21	badgood	1	reminder	57	1	4287	Controlla le categorie - premi SPAZIO per cominciare
121418	10:02	3.0.6.0	2	21	badgood	2	Plaingoodright	23	1	600	pace
121418	10:02	3.0.6.0	2	21	badgood	4	Plainbadleft	18	1	503	cattivo
121418	10:02	3.0.6.0	2	21	badgood	6	Plainbadleft	18	1	563	odio
121418	10:02	3.0.6.0	2	21	badgood	8	Plaingoodright	23	1	546	felicità
121418	10:02	3.0.6.0	2	21	badgood	10	Plaingoodright	23	1	551	ridere
121418	10:02	3.0.6.0	2	21	badgood	12	Plainbadleft	18	1	579	male
121418	10:02	3.0.6.0	2	21	badgood	14	Plaingoodright	23	1	492	gloria
121418	10:02	3.0.6.0	2	21	badgood	16	Plaingoodright	23	1	509	piacere
121418	10:02	3.0.6.0	2	21	badgood	18	Plainbadleft	18	1	522	terribile
121418	10:02	3.0.6.0	2	21	badgood	20	Plaingoodright	23	1	513	amore
121418	10:02	3.0.6.0	2	21	badgood	22	Plainbadleft	18	1	614	fallimento
121418	10:02	3.0.6.0	2	21	badgood	24	Plaingoodright	23	1	607	gioia
121418	10:02	3.0.6.0	2	21	badgood	26	Plainbadleft	18	1	630	disastro
121418	10:02	3.0.6.0	2	21	badgood	28	Plaingoodright	23	1	834	buono
121418	10:02	3.0.6.0	2	21	badgood	30	Plainbadleft	18	1	670	nocivo
121418	10:02	3.0.6.0	2	21	badgood	32	Plainbadleft	18	1	514	orribile
121418	10:02	3.0.6.0	2	21	badgood	34	Plainbadleft	18	1	534	disastro
121418	10:02	3.0.6.0	2	21	badgood	36	Plaingoodright	23	1	424	pace
121418	10:02	3.0.6.0	2	21	badgood	38	Plaingoodright	23	1	412	gioia
121418	10:02	3.0.6.0	2	21	badgood	40	Plainbadleft	18	1	430	fallimento
121418	10:02	3.0.6.0	2	23	PracticeWhitegood	1	reminder	57	1	4450	Controlla le categorie - premi SPAZIO per cominciare
121418	10:02	3.0.6.0	2	23	PracticeWhitegood	2	PlainBlackleft	18	1	678	bf23.jpg
121418	10:02	3.0.6.0	2	23	PracticeWhitegood	4	Plainbadleft	18	1	517	cattivo
121418	10:02	3.0.6.0	2	23	PracticeWhitegood	6	PlainBlackleft	18	1	516	bf56.jpg
121418	10:02	3.0.6.0	2	23	PracticeWhitegood	8	PlainWhiteright	23	1	571	wf3.jpg
121418	10:02	3.0.6.0	2	23	PracticeWhitegood	10	PlainWhiteright	23	1	700	wf2.jpg
121418	10:02	3.0.6.0	2	23	PracticeWhitegood	12	PlainBlackleft	18	1	640	bm56.jpg
121418	10:02	3.0.6.0	2	23	PracticeWhitegood	14	Plainbadleft	18	1	647	orribile
121418	10:02	3.0.6.0	2	23	PracticeWhitegood	16	Plainbadleft	18	1	590	fallimento
121418	10:02	3.0.6.0	2	23	PracticeWhitegood	18	Plaingoodright	23	1	554	gloria
121418	10:02	3.0.6.0	2	23	PracticeWhitegood	20	Plaingoodright	23	1	470	piacere
121418	10:02	3.0.6.0	2	23	PracticeWhitegood	22	Plaingoodright	23	1	403	ridere
121418	10:02	3.0.6.0	2	23	PracticeWhitegood	24	PlainBlackleft	18	1	556	bm23.jpg
121418	10:02	3.0.6.0	2	23	PracticeWhitegood	26	PlainBlackleft	18	1	435	bm14.jpg
121418	10:02	3.0.6.0	2	23	PracticeWhitegood	28	Plaingoodright	23	1	519	buono
121418	10:02	3.0.6.0	2	23	PracticeWhitegood	30	Plainbadleft	18	1	663	odio
121418	10:02	3.0.6.0	2	23	PracticeWhitegood	32	PlainWhiteright	23	1	651	wm1.jpg
121418	10:02	3.0.6.0	2	23	PracticeWhitegood	34	PlainWhiteright	23	1	540	wf6.jpg
121418	10:02	3.0.6.0	2	23	PracticeWhitegood	36	Plainbadleft	18	1	558	disastro
121418	10:02	3.0.6.0	2	23	PracticeWhitegood	38	PlainWhiteright	23	1	1509	wm4.jpg
121418	10:02	3.0.6.0	2	23	PracticeWhitegood	40	Plaingoodright	23	1	600	amore
121418	10:02	3.0.6.0	2	24	TestWhitegood	1	reminder1	57	1	3176	Riposati se ne senti il bisogno - premi SPAZIO per cominciare
121418	10:02	3.0.6.0	2	24	TestWhitegood	2	PlainBlackleft	18	1	553	bm56.jpg
121418	10:02	3.0.6.0	2	24	TestWhitegood	4	Plaingoodright	23	1	550	pace
121418	10:02	3.0.6.0	2	24	TestWhitegood	6	Plaingoodright	23	1	458	ridere
121418	10:02	3.0.6.0	2	24	TestWhitegood	8	Plaingoodright	23	1	411	felicità
121418	10:02	3.0.6.0	2	24	TestWhitegood	10	Plaingoodright	23	1	437	buono
121418	10:02	3.0.6.0	2	24	TestWhitegood	12	Plaingoodright	23	1	404	gloria
121418	10:02	3.0.6.0	2	24	TestWhitegood	14	PlainBlackleft	18	1	502	bm14.jpg
121418	10:02	3.0.6.0	2	24	TestWhitegood	16	Plainbadleft	18	1	495	nocivo
121418	10:02	3.0.6.0	2	24	TestWhitegood	18	PlainWhiteright	23	1	601	wm4.jpg
121418	10:02	3.0.6.0	2	24	TestWhitegood	20	Plaingoodright	23	1	496	amore
121418	10:02	3.0.6.0	2	24	TestWhitegood	22	PlainBlackleft	18	1	548	bf14.jpg
121418	10:02	3.0.6.0	2	24	TestWhitegood	24	Plainbadleft	18	1	609	cattivo
121418	10:02	3.0.6.0	2	24	TestWhitegood	26	PlainWhiteright	23	1	658	wf6.jpg
121418	10:02	3.0.6.0	2	24	TestWhitegood	28	PlainWhiteright	23	1	694	wf2.jpg
121418	10:02	3.0.6.0	2	24	TestWhitegood	30	PlainBlackleft	18	1	568	bm23.jpg
121418	10:02	3.0.6.0	2	24	TestWhitegood	32	Plainbadleft	18	1	615	disastro
121418	10:02	3.0.6.0	2	24	TestWhitegood	34	PlainWhiteright	23	1	552	wf3.jpg
121418	10:02	3.0.6.0	2	24	TestWhitegood	36	PlainBlackleft	18	1	559	bf23.jpg
121418	10:02	3.0.6.0	2	24	TestWhitegood	38	PlainWhiteright	23	1	510	wm6.jpg
121418	10:02	3.0.6.0	2	24	TestWhitegood	40	Plaingoodright	23	1	562	gioia
121418	10:02	3.0.6.0	2	24	TestWhitegood	42	PlainBlackleft	18	1	817	bf56.jpg
121418	10:02	3.0.6.0	2	24	TestWhitegood	44	Plainbadleft	18	1	546	terribile
121418	10:02	3.0.6.0	2	24	TestWhitegood	46	Plainbadleft	18	1	519	odio
121418	10:02	3.0.6.0	2	24	TestWhitegood	48	PlainWhiteright	23	1	1070	wm1.jpg
121418	10:02	3.0.6.0	2	24	TestWhitegood	50	PlainWhiteright	23	1	393	wm4.jpg
121418	10:02	3.0.6.0	2	24	TestWhitegood	52	PlainWhiteright	23	1	424	wm1.jpg
121418	10:02	3.0.6.0	2	24	TestWhitegood	54	PlainBlackleft	18	1	572	bm56.jpg
121418	10:02	3.0.6.0	2	24	TestWhitegood	56	PlainWhiteright	23	1	494	wm6.jpg
121418	10:02	3.0.6.0	2	24	TestWhitegood	58	PlainBlackleft	18	1	528	bm23.jpg
121418	10:02	3.0.6.0	2	24	TestWhitegood	60	PlainBlackleft	18	1	585	bf23.jpg
121418	10:02	3.0.6.0	2	24	TestWhitegood	62	Plaingoodright	23	1	1094	piacere
121418	10:02	3.0.6.0	2	24	TestWhitegood	64	Plaingoodright	23	1	390	ridere
121418	10:02	3.0.6.0	2	24	TestWhitegood	66	Plainbadleft	18	1	563	orribile
121418	10:02	3.0.6.0	2	24	TestWhitegood	68	PlainWhiteright	23	1	844	wf3.jpg
121418	10:02	3.0.6.0	2	24	TestWhitegood	70	Plainbadleft	23	0	563	male
121418	10:02	3.0.6.0	2	24	TestWhitegood	72	PlainBlackleft	18	1	596	bm14.jpg
121418	10:02	3.0.6.0	2	24	TestWhitegood	74	Plainbadleft	18	1	979	fallimento
121418	10:02	3.0.6.0	2	24	TestWhitegood	76	Plainbadleft	18	1	396	fallimento
121418	10:02	3.0.6.0	2	24	TestWhitegood	78	Plaingoodright	23	1	539	felicità
121418	10:02	3.0.6.0	2	24	TestWhitegood	80	Plainbadleft	18	1	533	odio
121418	10:02	3.0.6.0	2	26	WhiteBlack	1	reminder	57	1	2775	Controlla le categorie - premi SPAZIO per cominciare
121418	10:02	3.0.6.0	2	26	WhiteBlack	2	PlainWhiteleft	18	1	725	wm6.jpg
121418	10:02	3.0.6.0	2	26	WhiteBlack	4	PlainWhiteleft	18	1	455	wf2.jpg
121418	10:02	3.0.6.0	2	26	WhiteBlack	6	PlainBlackright	23	1	488	bf23.jpg
121418	10:02	3.0.6.0	2	26	WhiteBlack	8	PlainWhiteleft	18	1	578	wm1.jpg
121418	10:02	3.0.6.0	2	26	WhiteBlack	10	PlainBlackright	23	1	542	bf56.jpg
121418	10:02	3.0.6.0	2	26	WhiteBlack	12	PlainBlackright	23	1	467	bm14.jpg
121418	10:02	3.0.6.0	2	26	WhiteBlack	14	PlainWhiteleft	18	1	583	wf6.jpg
121418	10:02	3.0.6.0	2	26	WhiteBlack	16	PlainWhiteleft	18	1	451	wf3.jpg
121418	10:02	3.0.6.0	2	26	WhiteBlack	18	PlainWhiteleft	18	1	789	wm4.jpg
121418	10:02	3.0.6.0	2	26	WhiteBlack	20	PlainWhiteleft	18	1	409	wf6.jpg
121418	10:02	3.0.6.0	2	26	WhiteBlack	22	PlainBlackright	23	1	499	bf14.jpg
121418	10:02	3.0.6.0	2	26	WhiteBlack	24	PlainBlackright	23	1	583	bm56.jpg
121418	10:02	3.0.6.0	2	26	WhiteBlack	26	PlainWhiteleft	18	1	539	wf2.jpg
121418	10:02	3.0.6.0	2	26	WhiteBlack	28	PlainWhiteleft	18	1	511	wf3.jpg
121418	10:02	3.0.6.0	2	26	WhiteBlack	30	PlainBlackright	23	1	574	bm23.jpg
121418	10:02	3.0.6.0	2	26	WhiteBlack	32	PlainBlackright	23	1	640	bf56.jpg
121418	10:02	3.0.6.0	2	26	WhiteBlack	34	PlainWhiteleft	18	1	551	wm1.jpg
121418	10:02	3.0.6.0	2	26	WhiteBlack	36	PlainBlackright	23	1	486	bm23.jpg
121418	10:02	3.0.6.0	2	26	WhiteBlack	38	PlainBlackright	23	1	495	bm56.jpg
121418	10:02	3.0.6.0	2	26	WhiteBlack	40	PlainBlackright	23	1	457	bm14.jpg
121418	10:02	3.0.6.0	2	28	PracticeWhitebad	1	reminder	57	1	6323	Controlla le categorie - premi SPAZIO per cominciare
121418	10:02	3.0.6.0	2	28	PracticeWhitebad	2	PlainBlackright	23	1	489	bf23.jpg
121418	10:02	3.0.6.0	2	28	PracticeWhitebad	4	PlainWhiteleft	23	0	355	wm4.jpg
121418	10:02	3.0.6.0	2	28	PracticeWhitebad	6	Plainbadleft	18	1	1623	odio
121418	10:02	3.0.6.0	2	28	PracticeWhitebad	8	PlainBlackright	23	1	1842	bm14.jpg
121418	10:02	3.0.6.0	2	28	PracticeWhitebad	10	Plaingoodright	23	1	471	amore
121418	10:02	3.0.6.0	2	28	PracticeWhitebad	12	Plainbadleft	18	1	507	cattivo
121418	10:02	3.0.6.0	2	28	PracticeWhitebad	14	PlainWhiteleft	18	1	1016	wf6.jpg
121418	10:02	3.0.6.0	2	28	PracticeWhitebad	16	Plainbadleft	18	1	1241	orribile
121418	10:02	3.0.6.0	2	28	PracticeWhitebad	18	Plainbadleft	18	1	574	disastro
121418	10:02	3.0.6.0	2	28	PracticeWhitebad	20	Plaingoodright	23	1	760	gloria
121418	10:02	3.0.6.0	2	28	PracticeWhitebad	22	Plaingoodright	23	1	471	pace
121418	10:02	3.0.6.0	2	28	PracticeWhitebad	24	PlainBlackright	23	1	653	bm23.jpg
121418	10:02	3.0.6.0	2	28	PracticeWhitebad	26	PlainWhiteleft	18	1	607	wf3.jpg
121418	10:02	3.0.6.0	2	28	PracticeWhitebad	28	Plaingoodright	23	1	942	felicità
121418	10:02	3.0.6.0	2	28	PracticeWhitebad	30	PlainBlackright	23	1	1073	bm56.jpg
121418	10:02	3.0.6.0	2	28	PracticeWhitebad	32	PlainBlackright	23	1	416	bf14.jpg
121418	10:02	3.0.6.0	2	28	PracticeWhitebad	34	PlainWhiteleft	18	1	521	wf2.jpg
121418	10:02	3.0.6.0	2	28	PracticeWhitebad	36	Plaingoodright	23	1	608	piacere
121418	10:02	3.0.6.0	2	28	PracticeWhitebad	38	PlainWhiteleft	18	1	586	wm6.jpg
121418	10:02	3.0.6.0	2	28	PracticeWhitebad	40	Plainbadleft	18	1	806	fallimento
121418	10:02	3.0.6.0	2	29	TestWhitebad	1	reminder1	57	1	1879	Riposati se ne senti il bisogno - premi SPAZIO per cominciare
121418	10:02	3.0.6.0	2	29	TestWhitebad	2	Plaingoodright	23	1	700	gioia
121418	10:02	3.0.6.0	2	29	TestWhitebad	4	PlainWhiteleft	18	1	680	wm6.jpg
121418	10:02	3.0.6.0	2	29	TestWhitebad	6	PlainWhiteleft	18	1	639	wf6.jpg
121418	10:02	3.0.6.0	2	29	TestWhitebad	8	Plainbadleft	18	1	830	terribile
121418	10:02	3.0.6.0	2	29	TestWhitebad	10	Plainbadleft	18	1	561	nocivo
121418	10:02	3.0.6.0	2	29	TestWhitebad	12	Plainbadleft	18	1	520	orribile
121418	10:02	3.0.6.0	2	29	TestWhitebad	14	Plainbadleft	18	1	455	cattivo
121418	10:02	3.0.6.0	2	29	TestWhitebad	16	Plaingoodright	23	1	449	buono
121418	10:02	3.0.6.0	2	29	TestWhitebad	18	PlainWhiteleft	18	1	667	wf3.jpg
121418	10:02	3.0.6.0	2	29	TestWhitebad	20	PlainBlackright	23	1	527	bf56.jpg
121418	10:02	3.0.6.0	2	29	TestWhitebad	22	PlainBlackright	23	1	464	bm56.jpg
121418	10:02	3.0.6.0	2	29	TestWhitebad	24	PlainBlackright	23	1	493	bf14.jpg
121418	10:02	3.0.6.0	2	29	TestWhitebad	26	PlainBlackright	23	1	510	bm23.jpg
121418	10:02	3.0.6.0	2	29	TestWhitebad	28	PlainWhiteleft	18	1	589	wm1.jpg
121418	10:02	3.0.6.0	2	29	TestWhitebad	30	PlainBlackright	23	1	540	bf23.jpg
121418	10:02	3.0.6.0	2	29	TestWhitebad	32	PlainBlackright	23	1	480	bm14.jpg
121418	10:02	3.0.6.0	2	29	TestWhitebad	34	PlainWhiteleft	18	1	535	wf2.jpg
121418	10:02	3.0.6.0	2	29	TestWhitebad	36	Plainbadleft	18	1	1193	fallimento
121418	10:02	3.0.6.0	2	29	TestWhitebad	38	Plaingoodright	23	1	540	gloria
121418	10:02	3.0.6.0	2	29	TestWhitebad	40	PlainWhiteleft	18	1	585	wm4.jpg
121418	10:02	3.0.6.0	2	29	TestWhitebad	42	PlainWhiteleft	18	1	541	wm4.jpg
121418	10:02	3.0.6.0	2	29	TestWhitebad	44	PlainWhiteleft	18	1	497	wm1.jpg
121418	10:02	3.0.6.0	2	29	TestWhitebad	46	Plaingoodright	23	1	547	felicità
121418	10:02	3.0.6.0	2	29	TestWhitebad	48	Plainbadleft	18	1	575	disastro
121418	10:02	3.0.6.0	2	29	TestWhitebad	50	Plainbadleft	18	1	521	odio
121418	10:02	3.0.6.0	2	29	TestWhitebad	52	Plaingoodright	23	1	528	piacere
121418	10:02	3.0.6.0	2	29	TestWhitebad	54	PlainBlackright	23	1	521	bm23.jpg
121418	10:02	3.0.6.0	2	29	TestWhitebad	56	PlainBlackright	23	1	456	bm14.jpg
121418	10:02	3.0.6.0	2	29	TestWhitebad	58	Plaingoodright	23	1	490	ridere
121418	10:02	3.0.6.0	2	29	TestWhitebad	60	Plaingoodright	23	1	428	pace
121418	10:02	3.0.6.0	2	29	TestWhitebad	62	Plaingoodright	23	1	400	amore
121418	10:02	3.0.6.0	2	29	TestWhitebad	64	Plainbadleft	18	1	471	male
121418	10:02	3.0.6.0	2	29	TestWhitebad	66	Plaingoodright	23	1	571	buono
121418	10:02	3.0.6.0	2	29	TestWhitebad	68	PlainBlackright	23	1	517	bm56.jpg
121418	10:02	3.0.6.0	2	29	TestWhitebad	70	Plaingoodright	23	1	420	amore
121418	10:02	3.0.6.0	2	29	TestWhitebad	72	Plainbadleft	18	1	462	nocivo
121418	10:02	3.0.6.0	2	29	TestWhitebad	74	PlainWhiteleft	18	1	586	wf2.jpg
121418	10:02	3.0.6.0	2	29	TestWhitebad	76	PlainWhiteleft	18	1	502	wm6.jpg
121418	10:02	3.0.6.0	2	29	TestWhitebad	78	PlainBlackright	23	1	539	bf23.jpg
121418	10:02	3.0.6.0	2	29	TestWhitebad	80	Plainbadleft	18	1	612	male
121418	10:02	3.0.6.0	2	34	badgood	1	reminder	57	1	2366	Controlla le categorie - premi SPAZIO per cominciare
121418	10:02	3.0.6.0	2	34	badgood	2	Plainbadleft	18	1	826	nocivo
121418	10:02	3.0.6.0	2	34	badgood	4	Plainbadleft	18	1	454	terribile
121418	10:02	3.0.6.0	2	34	badgood	6	Plainbadleft	18	1	352	cattivo
121418	10:02	3.0.6.0	2	34	badgood	8	Plaingoodright	18	0	380	piacere
121418	10:02	3.0.6.0	2	34	badgood	10	Plaingoodright	23	1	590	amore
121418	10:02	3.0.6.0	2	34	badgood	12	Plaingoodright	23	1	418	ridere
121418	10:02	3.0.6.0	2	34	badgood	14	Plaingoodright	23	1	420	gioia
121418	10:02	3.0.6.0	2	34	badgood	16	Plaingoodright	23	1	542	buono
121418	10:02	3.0.6.0	2	34	badgood	18	Plaingoodright	23	1	391	gloria
121418	10:02	3.0.6.0	2	34	badgood	20	Plaingoodright	23	1	404	felicità
121418	10:02	3.0.6.0	2	34	badgood	22	Plainbadleft	18	1	523	disastro
121418	10:02	3.0.6.0	2	34	badgood	24	Plaingoodright	23	1	426	pace
121418	10:02	3.0.6.0	2	34	badgood	26	Plainbadleft	18	1	439	fallimento
121418	10:02	3.0.6.0	2	34	badgood	28	Plainbadleft	18	1	454	orribile
121418	10:02	3.0.6.0	2	34	badgood	30	Plaingoodright	23	1	415	gloria
121418	10:02	3.0.6.0	2	34	badgood	32	Plaingoodright	23	1	393	buono
121418	10:02	3.0.6.0	2	34	badgood	34	Plainbadleft	18	1	526	odio
121418	10:02	3.0.6.0	2	34	badgood	36	Plainbadleft	18	1	509	male
121418	10:02	3.0.6.0	2	34	badgood	38	Plainbadleft	18	1	409	male
121418	10:02	3.0.6.0	2	34	badgood	40	Plainbadleft	18	1	451	cattivo
121418	10:02	3.0.6.0	2	57	demografica	1	sesso	Maschio	1	24586	0
121418	10:02	3.0.6.0	2	57	demografica	1	età	31	1	24586	0
121418	10:02	3.0.6.0	2	57	demografica	1	occupazio	stud	1	24586	0
121418	10:02	3.0.6.0	2	57	demografica	1	edu	magistrale	1	24586	0
121418	10:02	3.0.6.0	2	57	demografica	4	pol1	3	1	18321	0
121418	10:02	3.0.6.0	2	57	demografica	4	pol2	5	1	18321	0
10919	14:15	3.0.6.0	3	1	consenso	1	consenso	Disponibile a partecipare alla ricerca nei termini sopra indicati	1	36221	0
10919	14:15	3.0.6.0	3	8	badgood	1	reminder	57	1	2820	Controlla le categorie - premi SPAZIO per cominciare
10919	14:15	3.0.6.0	3	8	badgood	2	Plainbadleft	18	1	1173	terribile
10919	14:15	3.0.6.0	3	8	badgood	4	Plainbadleft	18	1	789	male
10919	14:15	3.0.6.0	3	8	badgood	6	Plainbadleft	18	1	953	fallimento
10919	14:15	3.0.6.0	3	8	badgood	8	Plaingoodright	23	1	613	pace
10919	14:15	3.0.6.0	3	8	badgood	10	Plainbadleft	18	1	750	disastro
10919	14:15	3.0.6.0	3	8	badgood	12	Plainbadleft	18	1	858	nocivo
10919	14:15	3.0.6.0	3	8	badgood	14	Plainbadleft	18	1	611	odio
10919	14:15	3.0.6.0	3	8	badgood	16	Plaingoodright	23	1	557	piacere
10919	14:15	3.0.6.0	3	8	badgood	18	Plainbadleft	18	1	492	cattivo
10919	14:15	3.0.6.0	3	8	badgood	20	Plainbadleft	18	1	534	orribile
10919	14:15	3.0.6.0	3	8	badgood	22	Plaingoodright	23	1	471	buono
10919	14:15	3.0.6.0	3	8	badgood	24	Plainbadleft	18	1	467	odio
10919	14:15	3.0.6.0	3	8	badgood	26	Plaingoodright	23	1	496	gioia
10919	14:15	3.0.6.0	3	8	badgood	28	Plaingoodright	23	1	554	felicità
10919	14:15	3.0.6.0	3	8	badgood	30	Plaingoodright	23	1	654	gloria
10919	14:15	3.0.6.0	3	8	badgood	32	Plainbadleft	18	1	447	disastro
10919	14:15	3.0.6.0	3	8	badgood	34	Plaingoodright	23	1	494	ridere
10919	14:15	3.0.6.0	3	8	badgood	36	Plaingoodright	23	1	544	amore
10919	14:15	3.0.6.0	3	8	badgood	38	Plaingoodright	23	1	620	buono
10919	14:15	3.0.6.0	3	8	badgood	40	Plaingoodright	23	1	550	pace
10919	14:15	3.0.6.0	3	45	WhiteBlack	1	reminder	57	1	5081	Controlla le categorie - premi SPAZIO per cominciare
10919	14:15	3.0.6.0	3	45	WhiteBlack	2	PlainBlackright	23	1	1081	bf56.jpg
10919	14:15	3.0.6.0	3	45	WhiteBlack	4	PlainBlackright	23	1	327	bm14.jpg
10919	14:15	3.0.6.0	3	45	WhiteBlack	6	PlainWhiteleft	23	0	313	wm6.jpg
10919	14:15	3.0.6.0	3	45	WhiteBlack	8	PlainBlackright	23	1	1264	bf14.jpg
10919	14:15	3.0.6.0	3	45	WhiteBlack	10	PlainWhiteleft	18	1	515	wf6.jpg
10919	14:15	3.0.6.0	3	45	WhiteBlack	12	PlainBlackright	23	1	594	bm56.jpg
10919	14:15	3.0.6.0	3	45	WhiteBlack	14	PlainBlackright	23	1	401	bm23.jpg
10919	14:15	3.0.6.0	3	45	WhiteBlack	16	PlainBlackright	23	1	408	bf23.jpg
10919	14:15	3.0.6.0	3	45	WhiteBlack	18	PlainWhiteleft	23	0	362	wf2.jpg
10919	14:15	3.0.6.0	3	45	WhiteBlack	20	PlainBlackright	23	1	601	bf56.jpg
10919	14:15	3.0.6.0	3	45	WhiteBlack	22	PlainWhiteleft	18	1	704	wm1.jpg
10919	14:15	3.0.6.0	3	45	WhiteBlack	24	PlainBlackright	23	1	580	bm14.jpg
10919	14:15	3.0.6.0	3	45	WhiteBlack	26	PlainWhiteleft	18	1	448	wf3.jpg
10919	14:15	3.0.6.0	3	45	WhiteBlack	28	PlainWhiteleft	18	1	618	wm4.jpg
10919	14:15	3.0.6.0	3	45	WhiteBlack	30	PlainWhiteleft	18	1	374	wf3.jpg
10919	14:15	3.0.6.0	3	45	WhiteBlack	32	PlainWhiteleft	23	0	576	wm1.jpg
10919	14:15	3.0.6.0	3	45	WhiteBlack	34	PlainWhiteleft	18	1	1084	wm4.jpg
10919	14:15	3.0.6.0	3	45	WhiteBlack	36	PlainWhiteleft	18	1	628	wf6.jpg
10919	14:15	3.0.6.0	3	45	WhiteBlack	38	PlainBlackright	23	1	537	bf23.jpg
10919	14:15	3.0.6.0	3	45	WhiteBlack	40	PlainBlackright	23	1	869	bm56.jpg
10919	14:15	3.0.6.0	3	47	badgood	1	reminder	57	1	3466	Controlla le categorie - premi SPAZIO per cominciare
10919	14:15	3.0.6.0	3	47	badgood	2	Plaingoodright	23	1	954	gloria
10919	14:15	3.0.6.0	3	47	badgood	4	Plaingoodright	23	1	440	buono
10919	14:15	3.0.6.0	3	47	badgood	6	Plaingoodright	23	1	325	ridere
10919	14:15	3.0.6.0	3	47	badgood	8	Plainbadleft	23	0	324	male
10919	14:15	3.0.6.0	3	47	badgood	10	Plaingoodright	23	1	723	amore
10919	14:15	3.0.6.0	3	47	badgood	12	Plainbadleft	18	1	474	terribile
10919	14:15	3.0.6.0	3	47	badgood	14	Plaingoodright	23	1	518	gioia
10919	14:15	3.0.6.0	3	47	badgood	16	Plaingoodright	23	1	597	pace
10919	14:15	3.0.6.0	3	47	badgood	18	Plainbadleft	18	1	364	cattivo
10919	14:15	3.0.6.0	3	47	badgood	20	Plainbadleft	18	1	467	fallimento
10919	14:15	3.0.6.0	3	47	badgood	22	Plaingoodright	23	1	528	felicità
10919	14:15	3.0.6.0	3	47	badgood	24	Plaingoodright	23	1	663	piacere
10919	14:15	3.0.6.0	3	47	badgood	26	Plainbadleft	18	1	467	odio
10919	14:15	3.0.6.0	3	47	badgood	28	Plainbadleft	18	1	503	nocivo
10919	14:15	3.0.6.0	3	47	badgood	30	Plaingoodright	23	1	452	pace
10919	14:15	3.0.6.0	3	47	badgood	32	Plainbadleft	18	1	397	disastro
10919	14:15	3.0.6.0	3	47	badgood	34	Plaingoodright	23	1	388	amore
10919	14:15	3.0.6.0	3	47	badgood	36	Plainbadleft	18	1	553	orribile
10919	14:15	3.0.6.0	3	47	badgood	38	Plainbadleft	18	1	413	cattivo
10919	14:15	3.0.6.0	3	47	badgood	40	Plainbadleft	18	1	343	terribile
10919	14:15	3.0.6.0	3	49	PracticeWhitebad	1	reminder	57	1	2958	Controlla le categorie - premi SPAZIO per cominciare
10919	14:15	3.0.6.0	3	49	PracticeWhitebad	2	Plainbadleft	18	1	721	terribile
10919	14:15	3.0.6.0	3	49	PracticeWhitebad	4	PlainBlackright	23	1	1527	bm14.jpg
10919	14:15	3.0.6.0	3	49	PracticeWhitebad	6	Plainbadleft	18	1	565	fallimento
10919	14:15	3.0.6.0	3	49	PracticeWhitebad	8	PlainBlackright	23	1	702	bf56.jpg
10919	14:15	3.0.6.0	3	49	PracticeWhitebad	10	Plainbadleft	18	1	603	cattivo
10919	14:15	3.0.6.0	3	49	PracticeWhitebad	12	PlainBlackright	23	1	393	bf14.jpg
10919	14:15	3.0.6.0	3	49	PracticeWhitebad	14	Plaingoodright	18	0	398	amore
10919	14:15	3.0.6.0	3	49	PracticeWhitebad	16	PlainWhiteleft	23	0	709	wf3.jpg
10919	14:15	3.0.6.0	3	49	PracticeWhitebad	18	PlainBlackright	23	1	1273	bm23.jpg
10919	14:15	3.0.6.0	3	49	PracticeWhitebad	20	Plaingoodright	23	1	396	piacere
10919	14:15	3.0.6.0	3	49	PracticeWhitebad	22	PlainWhiteleft	23	0	723	wm6.jpg
10919	14:15	3.0.6.0	3	49	PracticeWhitebad	24	Plaingoodright	23	1	1146	felicità
10919	14:15	3.0.6.0	3	49	PracticeWhitebad	26	Plaingoodright	23	1	581	gloria
10919	14:15	3.0.6.0	3	49	PracticeWhitebad	28	Plainbadleft	23	0	367	nocivo
10919	14:15	3.0.6.0	3	49	PracticeWhitebad	30	PlainWhiteleft	18	1	985	wf6.jpg
10919	14:15	3.0.6.0	3	49	PracticeWhitebad	32	PlainBlackright	23	1	604	bf23.jpg
10919	14:15	3.0.6.0	3	49	PracticeWhitebad	34	PlainWhiteleft	18	1	1038	wm1.jpg
10919	14:15	3.0.6.0	3	49	PracticeWhitebad	36	Plaingoodright	18	0	684	pace
10919	14:15	3.0.6.0	3	49	PracticeWhitebad	38	Plainbadleft	18	1	819	male
10919	14:15	3.0.6.0	3	49	PracticeWhitebad	40	PlainWhiteleft	18	1	798	wf2.jpg
10919	14:15	3.0.6.0	3	50	TestWhitebad	1	reminder1	57	1	15039	Riposati se ne senti il bisogno - premi SPAZIO per cominciare
10919	14:15	3.0.6.0	3	50	TestWhitebad	2	Plaingoodright	23	1	1334	piacere
10919	14:15	3.0.6.0	3	50	TestWhitebad	4	PlainBlackright	23	1	806	bm14.jpg
10919	14:15	3.0.6.0	3	50	TestWhitebad	6	Plaingoodright	23	1	557	felicità
10919	14:15	3.0.6.0	3	50	TestWhitebad	8	Plainbadleft	18	1	580	fallimento
10919	14:15	3.0.6.0	3	50	TestWhitebad	10	Plaingoodright	23	1	469	buono
10919	14:15	3.0.6.0	3	50	TestWhitebad	12	PlainBlackright	23	1	617	bf14.jpg
10919	14:15	3.0.6.0	3	50	TestWhitebad	14	PlainBlackright	23	1	405	bf23.jpg
10919	14:15	3.0.6.0	3	50	TestWhitebad	16	PlainBlackright	23	1	719	bm56.jpg
10919	14:15	3.0.6.0	3	50	TestWhitebad	18	PlainWhiteleft	23	0	398	wf6.jpg
10919	14:15	3.0.6.0	3	50	TestWhitebad	20	PlainBlackright	23	1	621	bm23.jpg
10919	14:15	3.0.6.0	3	50	TestWhitebad	22	Plainbadleft	18	1	575	terribile
10919	14:15	3.0.6.0	3	50	TestWhitebad	24	PlainWhiteleft	18	1	504	wm1.jpg
10919	14:15	3.0.6.0	3	50	TestWhitebad	26	PlainWhiteleft	18	1	580	wm4.jpg
10919	14:15	3.0.6.0	3	50	TestWhitebad	28	Plaingoodright	23	1	582	gloria
10919	14:15	3.0.6.0	3	50	TestWhitebad	30	Plainbadleft	18	1	583	odio
10919	14:15	3.0.6.0	3	50	TestWhitebad	32	Plainbadleft	23	0	508	male
10919	14:15	3.0.6.0	3	50	TestWhitebad	34	PlainWhiteleft	18	1	1040	wm6.jpg
10919	14:15	3.0.6.0	3	50	TestWhitebad	36	Plaingoodright	23	1	470	amore
10919	14:15	3.0.6.0	3	50	TestWhitebad	38	Plaingoodright	23	1	362	gioia
10919	14:15	3.0.6.0	3	50	TestWhitebad	40	Plainbadleft	18	1	546	cattivo
10919	14:15	3.0.6.0	3	50	TestWhitebad	42	Plainbadleft	18	1	470	nocivo
10919	14:15	3.0.6.0	3	50	TestWhitebad	44	PlainBlackright	23	1	533	bf56.jpg
10919	14:15	3.0.6.0	3	50	TestWhitebad	46	PlainBlackright	23	1	447	bm14.jpg
10919	14:15	3.0.6.0	3	50	TestWhitebad	48	PlainWhiteleft	18	1	440	wf3.jpg
10919	14:15	3.0.6.0	3	50	TestWhitebad	50	PlainBlackright	23	1	511	bf23.jpg
10919	14:15	3.0.6.0	3	50	TestWhitebad	52	PlainWhiteleft	18	1	382	wf2.jpg
10919	14:15	3.0.6.0	3	50	TestWhitebad	54	Plainbadleft	18	1	403	disastro
10919	14:15	3.0.6.0	3	50	TestWhitebad	56	PlainWhiteleft	18	1	477	wm1.jpg
10919	14:15	3.0.6.0	3	50	TestWhitebad	58	PlainBlackright	18	0	428	bf14.jpg
10919	14:15	3.0.6.0	3	50	TestWhitebad	60	PlainWhiteleft	18	1	592	wm4.jpg
10919	14:15	3.0.6.0	3	50	TestWhitebad	62	Plaingoodright	23	1	468	pace
10919	14:15	3.0.6.0	3	50	TestWhitebad	64	Plaingoodright	23	1	481	ridere
10919	14:15	3.0.6.0	3	50	TestWhitebad	66	PlainBlackright	23	1	512	bf56.jpg
10919	14:15	3.0.6.0	3	50	TestWhitebad	68	Plaingoodright	23	1	660	felicità
10919	14:15	3.0.6.0	3	50	TestWhitebad	70	Plaingoodright	23	1	358	pace
10919	14:15	3.0.6.0	3	50	TestWhitebad	72	Plainbadleft	23	0	325	orribile
10919	14:15	3.0.6.0	3	50	TestWhitebad	74	PlainWhiteleft	18	1	703	wf3.jpg
10919	14:15	3.0.6.0	3	50	TestWhitebad	76	PlainWhiteleft	18	1	483	wm6.jpg
10919	14:15	3.0.6.0	3	50	TestWhitebad	78	Plainbadleft	18	1	482	male
10919	14:15	3.0.6.0	3	50	TestWhitebad	80	Plainbadleft	18	1	345	terribile
10919	14:15	3.0.6.0	3	52	WhiteBlack2nd	1	reminder	57	1	4096	Controlla le categorie - premi SPAZIO per cominciare
10919	14:15	3.0.6.0	3	52	WhiteBlack2nd	2	PlainBlackleft	18	1	588	bm56.jpg
10919	14:15	3.0.6.0	3	52	WhiteBlack2nd	4	PlainBlackleft	18	1	368	bf14.jpg
10919	14:15	3.0.6.0	3	52	WhiteBlack2nd	6	PlainWhiteright	18	0	322	wm6.jpg
10919	14:15	3.0.6.0	3	52	WhiteBlack2nd	8	PlainBlackleft	18	1	580	bf56.jpg
10919	14:15	3.0.6.0	3	52	WhiteBlack2nd	10	PlainWhiteright	23	1	488	wm1.jpg
10919	14:15	3.0.6.0	3	52	WhiteBlack2nd	12	PlainBlackleft	18	1	602	bm23.jpg
10919	14:15	3.0.6.0	3	52	WhiteBlack2nd	14	PlainWhiteright	23	1	425	wf6.jpg
10919	14:15	3.0.6.0	3	52	WhiteBlack2nd	16	PlainWhiteright	23	1	533	wm4.jpg
10919	14:15	3.0.6.0	3	52	WhiteBlack2nd	18	PlainBlackleft	18	1	535	bm14.jpg
10919	14:15	3.0.6.0	3	52	WhiteBlack2nd	20	PlainBlackleft	18	1	568	bf23.jpg
10919	14:15	3.0.6.0	3	52	WhiteBlack2nd	22	PlainBlackleft	18	1	386	bf56.jpg
10919	14:15	3.0.6.0	3	52	WhiteBlack2nd	24	PlainWhiteright	18	0	350	wf3.jpg
10919	14:15	3.0.6.0	3	52	WhiteBlack2nd	26	PlainWhiteright	23	1	677	wf2.jpg
10919	14:15	3.0.6.0	3	52	WhiteBlack2nd	28	PlainWhiteright	23	1	332	wm6.jpg
10919	14:15	3.0.6.0	3	52	WhiteBlack2nd	30	PlainBlackleft	23	0	374	bm23.jpg
10919	14:15	3.0.6.0	3	52	WhiteBlack2nd	32	PlainWhiteright	23	1	720	wm4.jpg
10919	14:15	3.0.6.0	3	52	WhiteBlack2nd	34	PlainWhiteright	23	1	639	wf3.jpg
10919	14:15	3.0.6.0	3	52	WhiteBlack2nd	36	PlainBlackleft	18	1	461	bm14.jpg
10919	14:15	3.0.6.0	3	52	WhiteBlack2nd	38	PlainWhiteright	18	0	418	wm1.jpg
10919	14:15	3.0.6.0	3	52	WhiteBlack2nd	40	PlainBlackleft	18	1	622	bm56.jpg
10919	14:15	3.0.6.0	3	54	PracticeWhitegood	1	reminder	57	1	5559	Controlla le categorie - premi SPAZIO per cominciare
10919	14:15	3.0.6.0	3	54	PracticeWhitegood	2	Plaingoodright	23	1	619	piacere
10919	14:15	3.0.6.0	3	54	PracticeWhitegood	4	Plainbadleft	18	1	445	terribile
10919	14:15	3.0.6.0	3	54	PracticeWhitegood	6	PlainBlackleft	18	1	559	bf14.jpg
10919	14:15	3.0.6.0	3	54	PracticeWhitegood	8	Plainbadleft	18	1	526	nocivo
10919	14:15	3.0.6.0	3	54	PracticeWhitegood	10	Plaingoodright	23	1	509	gioia
10919	14:15	3.0.6.0	3	54	PracticeWhitegood	12	PlainWhiteright	23	1	753	wm6.jpg
10919	14:15	3.0.6.0	3	54	PracticeWhitegood	14	Plainbadleft	18	1	461	orribile
10919	14:15	3.0.6.0	3	54	PracticeWhitegood	16	Plainbadleft	18	1	623	fallimento
10919	14:15	3.0.6.0	3	54	PracticeWhitegood	18	Plaingoodright	23	1	531	felicità
10919	14:15	3.0.6.0	3	54	PracticeWhitegood	20	Plainbadleft	18	1	476	odio
10919	14:15	3.0.6.0	3	54	PracticeWhitegood	22	PlainBlackleft	18	1	755	bf23.jpg
10919	14:15	3.0.6.0	3	54	PracticeWhitegood	24	PlainWhiteright	18	0	386	wm4.jpg
10919	14:15	3.0.6.0	3	54	PracticeWhitegood	26	Plaingoodright	23	1	646	pace
10919	14:15	3.0.6.0	3	54	PracticeWhitegood	28	PlainBlackleft	18	1	536	bf56.jpg
10919	14:15	3.0.6.0	3	54	PracticeWhitegood	30	PlainBlackleft	18	1	425	bm14.jpg
10919	14:15	3.0.6.0	3	54	PracticeWhitegood	32	PlainBlackleft	18	1	446	bm56.jpg
10919	14:15	3.0.6.0	3	54	PracticeWhitegood	34	Plaingoodright	23	1	485	buono
10919	14:15	3.0.6.0	3	54	PracticeWhitegood	36	PlainWhiteright	23	1	582	wm1.jpg
10919	14:15	3.0.6.0	3	54	PracticeWhitegood	38	PlainWhiteright	23	1	539	wf6.jpg
10919	14:15	3.0.6.0	3	54	PracticeWhitegood	40	PlainWhiteright	23	1	447	wf3.jpg
10919	14:15	3.0.6.0	3	55	TestWhitegood	1	reminder1	57	1	2761	Riposati se ne senti il bisogno - premi SPAZIO per cominciare
10919	14:15	3.0.6.0	3	55	TestWhitegood	2	Plainbadleft	18	1	748	terribile
10919	14:15	3.0.6.0	3	55	TestWhitegood	4	Plainbadleft	23	0	440	disastro
10919	14:15	3.0.6.0	3	55	TestWhitegood	6	PlainWhiteright	23	1	887	wf2.jpg
10919	14:15	3.0.6.0	3	55	TestWhitegood	8	PlainWhiteright	23	1	664	wm4.jpg
10919	14:15	3.0.6.0	3	55	TestWhitegood	10	PlainWhiteright	23	1	396	wm1.jpg
10919	14:15	3.0.6.0	3	55	TestWhitegood	12	Plainbadleft	18	1	412	fallimento
10919	14:15	3.0.6.0	3	55	TestWhitegood	14	PlainBlackleft	18	1	437	bm23.jpg
10919	14:15	3.0.6.0	3	55	TestWhitegood	16	Plaingoodright	23	1	468	piacere
10919	14:15	3.0.6.0	3	55	TestWhitegood	18	Plaingoodright	23	1	377	gloria
10919	14:15	3.0.6.0	3	55	TestWhitegood	20	PlainBlackleft	18	1	453	bm14.jpg
10919	14:15	3.0.6.0	3	55	TestWhitegood	22	PlainBlackleft	18	1	479	bm56.jpg
10919	14:15	3.0.6.0	3	55	TestWhitegood	24	PlainBlackleft	18	1	430	bf14.jpg
10919	14:15	3.0.6.0	3	55	TestWhitegood	26	PlainBlackleft	18	1	549	bf23.jpg
10919	14:15	3.0.6.0	3	55	TestWhitegood	28	PlainWhiteright	18	0	340	wf6.jpg
10919	14:15	3.0.6.0	3	55	TestWhitegood	30	Plaingoodright	23	1	710	buono
10919	14:15	3.0.6.0	3	55	TestWhitegood	32	Plainbadleft	18	1	474	cattivo
10919	14:15	3.0.6.0	3	55	TestWhitegood	34	Plainbadleft	18	1	750	male
10919	14:15	3.0.6.0	3	55	TestWhitegood	36	PlainBlackleft	18	1	741	bf56.jpg
10919	14:15	3.0.6.0	3	55	TestWhitegood	38	Plaingoodright	23	1	494	gioia
10919	14:15	3.0.6.0	3	55	TestWhitegood	40	Plaingoodright	23	1	480	amore
10919	14:15	3.0.6.0	3	55	TestWhitegood	42	PlainWhiteright	23	1	567	wf3.jpg
10919	14:15	3.0.6.0	3	55	TestWhitegood	44	Plaingoodright	23	1	398	ridere
10919	14:15	3.0.6.0	3	55	TestWhitegood	46	Plaingoodright	23	1	325	pace
10919	14:15	3.0.6.0	3	55	TestWhitegood	48	PlainWhiteright	23	1	639	wm6.jpg
10919	14:15	3.0.6.0	3	55	TestWhitegood	50	Plainbadleft	18	1	518	orribile
10919	14:15	3.0.6.0	3	55	TestWhitegood	52	PlainWhiteright	23	1	637	wm6.jpg
10919	14:15	3.0.6.0	3	55	TestWhitegood	54	Plaingoodright	18	0	347	felicità
10919	14:15	3.0.6.0	3	55	TestWhitegood	56	PlainBlackleft	18	1	576	bf23.jpg
10919	14:15	3.0.6.0	3	55	TestWhitegood	58	PlainBlackleft	18	1	1116	bm23.jpg
10919	14:15	3.0.6.0	3	55	TestWhitegood	60	PlainBlackleft	18	1	522	bm56.jpg
10919	14:15	3.0.6.0	3	55	TestWhitegood	62	Plaingoodright	23	1	401	gloria
10919	14:15	3.0.6.0	3	55	TestWhitegood	64	Plainbadleft	23	0	496	nocivo
10919	14:15	3.0.6.0	3	55	TestWhitegood	66	Plainbadleft	18	1	586	odio
10919	14:15	3.0.6.0	3	55	TestWhitegood	68	PlainBlackleft	18	1	486	bm14.jpg
10919	14:15	3.0.6.0	3	55	TestWhitegood	70	Plainbadleft	18	1	549	orribile
10919	14:15	3.0.6.0	3	55	TestWhitegood	72	PlainWhiteright	23	1	505	wf6.jpg
10919	14:15	3.0.6.0	3	55	TestWhitegood	74	Plainbadleft	18	1	406	terribile
10919	14:15	3.0.6.0	3	55	TestWhitegood	76	Plaingoodright	23	1	437	felicità
10919	14:15	3.0.6.0	3	55	TestWhitegood	78	PlainWhiteright	23	1	452	wm1.jpg
10919	14:15	3.0.6.0	3	55	TestWhitegood	80	PlainWhiteright	18	0	478	wm4.jpg
10919	14:15	3.0.6.0	3	57	demografica	1	sesso	Femmina	1	16351	0
10919	14:15	3.0.6.0	3	57	demografica	1	età	21	1	16351	0
10919	14:15	3.0.6.0	3	57	demografica	1	occupazio	stud	1	16351	0
10919	14:15	3.0.6.0	3	57	demografica	1	edu	sup	1	16351	0
10919	14:15	3.0.6.0	3	57	demografica	4	pol1	3	1	32662	0
10919	14:15	3.0.6.0	3	57	demografica	4	pol2	2	1	32662	0
10919	14:37	3.0.6.0	4	1	consenso	1	consenso	Disponibile a partecipare alla ricerca nei termini sopra indicati	1	7045	0
10919	14:37	3.0.6.0	4	8	badgood	1	reminder	57	0	6459	Controlla le categorie - premi SPAZIO per cominciare
10919	14:37	3.0.6.0	4	8	badgood	2	Plaingoodright	23	1	1452	ridere
10919	14:37	3.0.6.0	4	8	badgood	4	Plaingoodright	23	1	756	amore
10919	14:37	3.0.6.0	4	8	badgood	6	Plainbadleft	18	1	979	nocivo
10919	14:37	3.0.6.0	4	8	badgood	8	Plainbadleft	18	1	756	male
10919	14:37	3.0.6.0	4	8	badgood	10	Plainbadleft	18	1	639	fallimento
10919	14:37	3.0.6.0	4	8	badgood	12	Plainbadleft	18	1	590	orribile
10919	14:37	3.0.6.0	4	8	badgood	14	Plainbadleft	18	1	546	disastro
10919	14:37	3.0.6.0	4	8	badgood	16	Plaingoodright	23	1	495	gioia
10919	14:37	3.0.6.0	4	8	badgood	18	Plaingoodright	23	1	496	buono
10919	14:37	3.0.6.0	4	8	badgood	20	Plainbadleft	18	1	642	odio
10919	14:37	3.0.6.0	4	8	badgood	22	Plainbadleft	18	1	841	terribile
10919	14:37	3.0.6.0	4	8	badgood	24	Plaingoodright	23	1	623	gloria
10919	14:37	3.0.6.0	4	8	badgood	26	Plaingoodright	23	1	451	piacere
10919	14:37	3.0.6.0	4	8	badgood	28	Plainbadleft	18	1	469	cattivo
10919	14:37	3.0.6.0	4	8	badgood	30	Plaingoodright	23	1	522	felicità
10919	14:37	3.0.6.0	4	8	badgood	32	Plainbadleft	18	1	537	terribile
10919	14:37	3.0.6.0	4	8	badgood	34	Plaingoodright	23	1	650	pace
10919	14:37	3.0.6.0	4	8	badgood	36	Plaingoodright	23	1	380	gioia
10919	14:37	3.0.6.0	4	8	badgood	38	Plaingoodright	23	1	389	pace
10919	14:37	3.0.6.0	4	8	badgood	40	Plainbadleft	18	1	554	fallimento
10919	14:37	3.0.6.0	4	45	WhiteBlack2nd	1	reminder	57	1	3774	Controlla le categorie - premi SPAZIO per cominciare
10919	14:37	3.0.6.0	4	45	WhiteBlack2nd	2	PlainBlackleft	18	1	594	bf23.jpg
10919	14:37	3.0.6.0	4	45	WhiteBlack2nd	4	PlainBlackleft	18	1	481	bm23.jpg
10919	14:37	3.0.6.0	4	45	WhiteBlack2nd	6	PlainWhiteright	23	1	504	wm1.jpg
10919	14:37	3.0.6.0	4	45	WhiteBlack2nd	8	PlainBlackleft	18	1	533	bm56.jpg
10919	14:37	3.0.6.0	4	45	WhiteBlack2nd	10	PlainWhiteright	23	1	486	wf2.jpg
10919	14:37	3.0.6.0	4	45	WhiteBlack2nd	12	PlainBlackleft	18	1	560	bf14.jpg
10919	14:37	3.0.6.0	4	45	WhiteBlack2nd	14	PlainBlackleft	18	1	479	bm14.jpg
10919	14:37	3.0.6.0	4	45	WhiteBlack2nd	16	PlainBlackleft	18	1	390	bf56.jpg
10919	14:37	3.0.6.0	4	45	WhiteBlack2nd	18	PlainWhiteright	18	0	389	wm4.jpg
10919	14:37	3.0.6.0	4	45	WhiteBlack2nd	20	PlainWhiteright	18	0	2708	wm6.jpg
10919	14:37	3.0.6.0	4	45	WhiteBlack2nd	22	PlainBlackleft	18	1	1029	bm23.jpg
10919	14:37	3.0.6.0	4	45	WhiteBlack2nd	24	PlainBlackleft	18	1	865	bf14.jpg
10919	14:37	3.0.6.0	4	45	WhiteBlack2nd	26	PlainWhiteright	23	1	460	wf3.jpg
10919	14:37	3.0.6.0	4	45	WhiteBlack2nd	28	PlainWhiteright	23	1	521	wf6.jpg
10919	14:37	3.0.6.0	4	45	WhiteBlack2nd	30	PlainWhiteright	23	1	464	wf6.jpg
10919	14:37	3.0.6.0	4	45	WhiteBlack2nd	32	PlainBlackleft	18	1	532	bf23.jpg
10919	14:37	3.0.6.0	4	45	WhiteBlack2nd	34	PlainWhiteright	23	1	582	wm4.jpg
10919	14:37	3.0.6.0	4	45	WhiteBlack2nd	36	PlainWhiteright	23	1	554	wm1.jpg
10919	14:37	3.0.6.0	4	45	WhiteBlack2nd	38	PlainBlackleft	18	1	569	bf56.jpg
10919	14:37	3.0.6.0	4	45	WhiteBlack2nd	40	PlainWhiteright	23	1	426	wf3.jpg
10919	14:37	3.0.6.0	4	47	badgood	1	reminder	57	0	2658	Controlla le categorie - premi SPAZIO per cominciare
10919	14:37	3.0.6.0	4	47	badgood	2	Plainbadleft	18	1	728	orribile
10919	14:37	3.0.6.0	4	47	badgood	4	Plaingoodright	23	1	439	pace
10919	14:37	3.0.6.0	4	47	badgood	6	Plaingoodright	23	1	486	amore
10919	14:37	3.0.6.0	4	47	badgood	8	Plaingoodright	23	1	565	buono
10919	14:37	3.0.6.0	4	47	badgood	10	Plaingoodright	23	1	468	gloria
10919	14:37	3.0.6.0	4	47	badgood	12	Plainbadleft	18	1	552	cattivo
10919	14:37	3.0.6.0	4	47	badgood	14	Plaingoodright	23	1	380	piacere
10919	14:37	3.0.6.0	4	47	badgood	16	Plaingoodright	23	1	510	ridere
10919	14:37	3.0.6.0	4	47	badgood	18	Plainbadleft	18	1	618	fallimento
10919	14:37	3.0.6.0	4	47	badgood	20	Plaingoodright	23	1	564	felicità
10919	14:37	3.0.6.0	4	47	badgood	22	Plaingoodright	23	1	499	gioia
10919	14:37	3.0.6.0	4	47	badgood	24	Plainbadleft	18	1	509	male
10919	14:37	3.0.6.0	4	47	badgood	26	Plainbadleft	23	0	441	odio
10919	14:37	3.0.6.0	4	47	badgood	28	Plainbadleft	18	1	1056	nocivo
10919	14:37	3.0.6.0	4	47	badgood	30	Plaingoodright	23	1	761	amore
10919	14:37	3.0.6.0	4	47	badgood	32	Plainbadleft	18	1	527	terribile
10919	14:37	3.0.6.0	4	47	badgood	34	Plainbadleft	18	1	822	disastro
10919	14:37	3.0.6.0	4	47	badgood	36	Plainbadleft	23	0	551	orribile
10919	14:37	3.0.6.0	4	47	badgood	38	Plaingoodright	23	1	1100	gioia
10919	14:37	3.0.6.0	4	47	badgood	40	Plainbadleft	18	1	861	cattivo
10919	14:37	3.0.6.0	4	49	PracticeWhitegood	1	reminder	57	1	7469	Controlla le categorie - premi SPAZIO per cominciare
10919	14:37	3.0.6.0	4	49	PracticeWhitegood	2	PlainWhiteright	23	1	830	wf6.jpg
10919	14:37	3.0.6.0	4	49	PracticeWhitegood	4	PlainWhiteright	23	1	437	wf2.jpg
10919	14:37	3.0.6.0	4	49	PracticeWhitegood	6	Plaingoodright	23	1	772	felicità
10919	14:37	3.0.6.0	4	49	PracticeWhitegood	8	Plainbadleft	18	1	941	cattivo
10919	14:37	3.0.6.0	4	49	PracticeWhitegood	10	PlainBlackleft	18	1	665	bm56.jpg
10919	14:37	3.0.6.0	4	49	PracticeWhitegood	12	Plaingoodright	23	1	557	gloria
10919	14:37	3.0.6.0	4	49	PracticeWhitegood	14	PlainBlackleft	18	1	556	bf23.jpg
10919	14:37	3.0.6.0	4	49	PracticeWhitegood	16	Plaingoodright	23	1	659	piacere
10919	14:37	3.0.6.0	4	49	PracticeWhitegood	18	Plaingoodright	23	1	452	amore
10919	14:37	3.0.6.0	4	49	PracticeWhitegood	20	Plainbadleft	18	1	478	fallimento
10919	14:37	3.0.6.0	4	49	PracticeWhitegood	22	PlainWhiteright	23	1	557	wm1.jpg
10919	14:37	3.0.6.0	4	49	PracticeWhitegood	24	Plaingoodright	23	1	772	ridere
10919	14:37	3.0.6.0	4	49	PracticeWhitegood	26	PlainBlackleft	18	1	453	bf14.jpg
10919	14:37	3.0.6.0	4	49	PracticeWhitegood	28	Plainbadleft	18	1	591	terribile
10919	14:37	3.0.6.0	4	49	PracticeWhitegood	30	PlainWhiteright	23	1	406	wm4.jpg
10919	14:37	3.0.6.0	4	49	PracticeWhitegood	32	Plainbadleft	18	1	509	male
10919	14:37	3.0.6.0	4	49	PracticeWhitegood	34	Plainbadleft	18	1	497	nocivo
10919	14:37	3.0.6.0	4	49	PracticeWhitegood	36	PlainBlackleft	18	1	493	bm14.jpg
10919	14:37	3.0.6.0	4	49	PracticeWhitegood	38	PlainBlackleft	18	1	543	bm23.jpg
10919	14:37	3.0.6.0	4	49	PracticeWhitegood	40	PlainWhiteright	23	1	475	wf3.jpg
10919	14:37	3.0.6.0	4	50	TestWhitegood	1	reminder1	57	1	2717	Riposati se ne senti il bisogno - premi SPAZIO per cominciare
10919	14:37	3.0.6.0	4	50	TestWhitegood	2	Plaingoodright	23	1	625	piacere
10919	14:37	3.0.6.0	4	50	TestWhitegood	4	PlainBlackleft	18	1	469	bm14.jpg
10919	14:37	3.0.6.0	4	50	TestWhitegood	6	PlainBlackleft	18	1	793	bf14.jpg
10919	14:37	3.0.6.0	4	50	TestWhitegood	8	Plainbadleft	18	1	557	odio
10919	14:37	3.0.6.0	4	50	TestWhitegood	10	PlainWhiteright	23	1	676	wm4.jpg
10919	14:37	3.0.6.0	4	50	TestWhitegood	12	PlainBlackleft	18	1	587	bf23.jpg
10919	14:37	3.0.6.0	4	50	TestWhitegood	14	Plaingoodright	23	1	615	amore
10919	14:37	3.0.6.0	4	50	TestWhitegood	16	Plaingoodright	23	1	416	gloria
10919	14:37	3.0.6.0	4	50	TestWhitegood	18	Plaingoodright	23	1	378	felicità
10919	14:37	3.0.6.0	4	50	TestWhitegood	20	Plainbadleft	23	0	388	male
10919	14:37	3.0.6.0	4	50	TestWhitegood	22	Plaingoodright	23	1	672	gioia
10919	14:37	3.0.6.0	4	50	TestWhitegood	24	PlainWhiteright	23	1	615	wf6.jpg
10919	14:37	3.0.6.0	4	50	TestWhitegood	26	PlainBlackleft	18	1	457	bm56.jpg
10919	14:37	3.0.6.0	4	50	TestWhitegood	28	PlainWhiteright	23	1	613	wm1.jpg
10919	14:37	3.0.6.0	4	50	TestWhitegood	30	PlainBlackleft	18	1	838	bf56.jpg
10919	14:37	3.0.6.0	4	50	TestWhitegood	32	Plainbadleft	18	1	749	disastro
10919	14:37	3.0.6.0	4	50	TestWhitegood	34	PlainWhiteright	23	1	545	wf3.jpg
10919	14:37	3.0.6.0	4	50	TestWhitegood	36	PlainBlackleft	18	1	509	bm23.jpg
10919	14:37	3.0.6.0	4	50	TestWhitegood	38	PlainWhiteright	23	1	596	wm6.jpg
10919	14:37	3.0.6.0	4	50	TestWhitegood	40	Plainbadleft	18	1	603	fallimento
10919	14:37	3.0.6.0	4	50	TestWhitegood	42	Plainbadleft	18	1	698	cattivo
10919	14:37	3.0.6.0	4	50	TestWhitegood	44	Plaingoodright	18	0	451	buono
10919	14:37	3.0.6.0	4	50	TestWhitegood	46	Plainbadleft	18	1	717	terribile
10919	14:37	3.0.6.0	4	50	TestWhitegood	48	PlainBlackleft	18	1	563	bm56.jpg
10919	14:37	3.0.6.0	4	50	TestWhitegood	50	PlainWhiteright	23	1	565	wf2.jpg
10919	14:37	3.0.6.0	4	50	TestWhitegood	52	Plainbadleft	18	1	716	nocivo
10919	14:37	3.0.6.0	4	50	TestWhitegood	54	PlainBlackleft	18	1	595	bf23.jpg
10919	14:37	3.0.6.0	4	50	TestWhitegood	56	Plaingoodright	23	1	583	ridere
10919	14:37	3.0.6.0	4	50	TestWhitegood	58	Plainbadleft	18	1	579	orribile
10919	14:37	3.0.6.0	4	50	TestWhitegood	60	PlainBlackleft	18	1	623	bf14.jpg
10919	14:37	3.0.6.0	4	50	TestWhitegood	62	PlainWhiteright	23	1	427	wm1.jpg
10919	14:37	3.0.6.0	4	50	TestWhitegood	64	PlainBlackleft	18	1	536	bm14.jpg
10919	14:37	3.0.6.0	4	50	TestWhitegood	66	Plainbadleft	18	1	633	male
10919	14:37	3.0.6.0	4	50	TestWhitegood	68	Plaingoodright	23	1	654	pace
10919	14:37	3.0.6.0	4	50	TestWhitegood	70	Plaingoodright	23	1	423	pace
10919	14:37	3.0.6.0	4	50	TestWhitegood	72	PlainWhiteright	23	1	955	wm4.jpg
10919	14:37	3.0.6.0	4	50	TestWhitegood	74	Plaingoodright	23	1	823	ridere
10919	14:37	3.0.6.0	4	50	TestWhitegood	76	Plainbadleft	18	1	499	disastro
10919	14:37	3.0.6.0	4	50	TestWhitegood	78	PlainWhiteright	23	1	535	wf2.jpg
10919	14:37	3.0.6.0	4	50	TestWhitegood	80	PlainWhiteright	23	1	593	wm6.jpg
10919	14:37	3.0.6.0	4	52	WhiteBlack	1	reminder	57	1	5153	Controlla le categorie - premi SPAZIO per cominciare
10919	14:37	3.0.6.0	4	52	WhiteBlack	2	PlainWhiteleft	18	1	678	wf2.jpg
10919	14:37	3.0.6.0	4	52	WhiteBlack	4	PlainBlackright	23	1	525	bf14.jpg
10919	14:37	3.0.6.0	4	52	WhiteBlack	6	PlainWhiteleft	18	1	527	wm6.jpg
10919	14:37	3.0.6.0	4	52	WhiteBlack	8	PlainWhiteleft	18	1	409	wm1.jpg
10919	14:37	3.0.6.0	4	52	WhiteBlack	10	PlainBlackright	23	1	506	bm56.jpg
10919	14:37	3.0.6.0	4	52	WhiteBlack	12	PlainWhiteleft	18	1	623	wm4.jpg
10919	14:37	3.0.6.0	4	52	WhiteBlack	14	PlainBlackright	23	1	523	bf56.jpg
10919	14:37	3.0.6.0	4	52	WhiteBlack	16	PlainBlackright	23	1	412	bf23.jpg
10919	14:37	3.0.6.0	4	52	WhiteBlack	18	PlainBlackright	23	1	470	bm23.jpg
10919	14:37	3.0.6.0	4	52	WhiteBlack	20	PlainWhiteleft	18	1	477	wf6.jpg
10919	14:37	3.0.6.0	4	52	WhiteBlack	22	PlainBlackright	23	1	708	bm14.jpg
10919	14:37	3.0.6.0	4	52	WhiteBlack	24	PlainWhiteleft	18	1	536	wf3.jpg
10919	14:37	3.0.6.0	4	52	WhiteBlack	26	PlainBlackright	23	1	485	bm56.jpg
10919	14:37	3.0.6.0	4	52	WhiteBlack	28	PlainBlackright	23	1	510	bm23.jpg
10919	14:37	3.0.6.0	4	52	WhiteBlack	30	PlainWhiteleft	18	1	477	wm6.jpg
10919	14:37	3.0.6.0	4	52	WhiteBlack	32	PlainWhiteleft	18	1	572	wf3.jpg
10919	14:37	3.0.6.0	4	52	WhiteBlack	34	PlainWhiteleft	18	1	678	wm4.jpg
10919	14:37	3.0.6.0	4	52	WhiteBlack	36	PlainWhiteleft	18	1	404	wf6.jpg
10919	14:37	3.0.6.0	4	52	WhiteBlack	38	PlainBlackright	23	1	518	bf56.jpg
10919	14:37	3.0.6.0	4	52	WhiteBlack	40	PlainBlackright	23	1	525	bm14.jpg
10919	14:37	3.0.6.0	4	54	PracticeWhitebad	1	reminder	57	1	8197	Controlla le categorie - premi SPAZIO per cominciare
10919	14:37	3.0.6.0	4	54	PracticeWhitebad	2	PlainWhiteleft	18	1	982	wm4.jpg
10919	14:37	3.0.6.0	4	54	PracticeWhitebad	4	Plainbadleft	18	1	1015	terribile
10919	14:37	3.0.6.0	4	54	PracticeWhitebad	6	Plaingoodright	18	0	776	pace
10919	14:37	3.0.6.0	4	54	PracticeWhitebad	8	Plainbadleft	18	1	1489	fallimento
10919	14:37	3.0.6.0	4	54	PracticeWhitebad	10	Plainbadleft	18	1	639	orribile
10919	14:37	3.0.6.0	4	54	PracticeWhitebad	12	Plaingoodright	23	1	541	felicità
10919	14:37	3.0.6.0	4	54	PracticeWhitebad	14	Plaingoodright	23	1	535	ridere
10919	14:37	3.0.6.0	4	54	PracticeWhitebad	16	PlainWhiteleft	18	1	704	wf6.jpg
10919	14:37	3.0.6.0	4	54	PracticeWhitebad	18	PlainWhiteleft	18	1	956	wm6.jpg
10919	14:37	3.0.6.0	4	54	PracticeWhitebad	20	Plaingoodright	23	1	979	piacere
10919	14:37	3.0.6.0	4	54	PracticeWhitebad	22	Plainbadleft	18	1	540	nocivo
10919	14:37	3.0.6.0	4	54	PracticeWhitebad	24	PlainWhiteleft	18	1	720	wm1.jpg
10919	14:37	3.0.6.0	4	54	PracticeWhitebad	26	PlainBlackright	23	1	535	bf23.jpg
10919	14:37	3.0.6.0	4	54	PracticeWhitebad	28	PlainBlackright	23	1	688	bf56.jpg
10919	14:37	3.0.6.0	4	54	PracticeWhitebad	30	Plainbadleft	18	1	543	male
10919	14:37	3.0.6.0	4	54	PracticeWhitebad	32	Plaingoodright	23	1	491	amore
10919	14:37	3.0.6.0	4	54	PracticeWhitebad	34	PlainBlackright	23	1	533	bf14.jpg
10919	14:37	3.0.6.0	4	54	PracticeWhitebad	36	PlainBlackright	23	1	590	bm14.jpg
10919	14:37	3.0.6.0	4	54	PracticeWhitebad	38	PlainBlackright	23	1	533	bm56.jpg
10919	14:37	3.0.6.0	4	54	PracticeWhitebad	40	PlainWhiteleft	18	1	679	wf3.jpg
10919	14:37	3.0.6.0	4	55	TestWhitebad	1	reminder1	57	1	2704	Riposati se ne senti il bisogno - premi SPAZIO per cominciare
10919	14:37	3.0.6.0	4	55	TestWhitebad	2	PlainBlackright	23	1	529	bm14.jpg
10919	14:37	3.0.6.0	4	55	TestWhitebad	4	Plainbadleft	18	1	587	nocivo
10919	14:37	3.0.6.0	4	55	TestWhitebad	6	PlainWhiteleft	18	1	967	wm4.jpg
10919	14:37	3.0.6.0	4	55	TestWhitebad	8	PlainWhiteleft	18	1	520	wm6.jpg
10919	14:37	3.0.6.0	4	55	TestWhitebad	10	PlainWhiteleft	18	1	399	wf2.jpg
10919	14:37	3.0.6.0	4	55	TestWhitebad	12	PlainBlackright	23	1	390	bm56.jpg
10919	14:37	3.0.6.0	4	55	TestWhitebad	14	PlainBlackright	23	1	413	bf14.jpg
10919	14:37	3.0.6.0	4	55	TestWhitebad	16	Plaingoodright	23	1	751	buono
10919	14:37	3.0.6.0	4	55	TestWhitebad	18	Plaingoodright	23	1	379	gloria
10919	14:37	3.0.6.0	4	55	TestWhitebad	20	Plaingoodright	23	1	349	gioia
10919	14:37	3.0.6.0	4	55	TestWhitebad	22	Plaingoodright	23	1	385	amore
10919	14:37	3.0.6.0	4	55	TestWhitebad	24	Plainbadleft	18	1	366	odio
10919	14:37	3.0.6.0	4	55	TestWhitebad	26	PlainBlackright	23	1	520	bm23.jpg
10919	14:37	3.0.6.0	4	55	TestWhitebad	28	PlainWhiteleft	18	1	639	wf6.jpg
10919	14:37	3.0.6.0	4	55	TestWhitebad	30	Plainbadleft	18	1	541	cattivo
10919	14:37	3.0.6.0	4	55	TestWhitebad	32	PlainWhiteleft	18	1	754	wm1.jpg
10919	14:37	3.0.6.0	4	55	TestWhitebad	34	Plaingoodright	23	1	686	pace
10919	14:37	3.0.6.0	4	55	TestWhitebad	36	Plaingoodright	23	1	604	ridere
10919	14:37	3.0.6.0	4	55	TestWhitebad	38	PlainWhiteleft	18	1	646	wf3.jpg
10919	14:37	3.0.6.0	4	55	TestWhitebad	40	Plainbadleft	23	0	445	terribile
10919	14:37	3.0.6.0	4	55	TestWhitebad	42	PlainBlackright	23	1	766	bf56.jpg
10919	14:37	3.0.6.0	4	55	TestWhitebad	44	Plainbadleft	18	1	573	disastro
10919	14:37	3.0.6.0	4	55	TestWhitebad	46	Plainbadleft	18	1	470	orribile
10919	14:37	3.0.6.0	4	55	TestWhitebad	48	Plainbadleft	18	1	531	fallimento
10919	14:37	3.0.6.0	4	55	TestWhitebad	50	PlainBlackright	23	1	476	bf23.jpg
10919	14:37	3.0.6.0	4	55	TestWhitebad	52	PlainBlackright	23	1	547	bf14.jpg
10919	14:37	3.0.6.0	4	55	TestWhitebad	54	PlainWhiteleft	18	1	488	wm6.jpg
10919	14:37	3.0.6.0	4	55	TestWhitebad	56	Plaingoodright	23	1	471	piacere
10919	14:37	3.0.6.0	4	55	TestWhitebad	58	PlainBlackright	23	1	558	bf56.jpg
10919	14:37	3.0.6.0	4	55	TestWhitebad	60	Plaingoodright	23	1	645	felicità
10919	14:37	3.0.6.0	4	55	TestWhitebad	62	PlainWhiteleft	18	1	574	wf3.jpg
10919	14:37	3.0.6.0	4	55	TestWhitebad	64	Plainbadleft	18	1	776	male
10919	14:37	3.0.6.0	4	55	TestWhitebad	66	PlainBlackright	23	1	657	bf23.jpg
10919	14:37	3.0.6.0	4	55	TestWhitebad	68	PlainWhiteleft	18	1	725	wf6.jpg
10919	14:37	3.0.6.0	4	55	TestWhitebad	70	Plaingoodright	23	1	564	felicità
10919	14:37	3.0.6.0	4	55	TestWhitebad	72	Plainbadleft	18	1	579	male
10919	14:37	3.0.6.0	4	55	TestWhitebad	74	PlainWhiteleft	18	1	847	wm4.jpg
10919	14:37	3.0.6.0	4	55	TestWhitebad	76	Plainbadleft	23	0	813	odio
10919	14:37	3.0.6.0	4	55	TestWhitebad	78	Plaingoodright	23	1	670	gloria
10919	14:37	3.0.6.0	4	55	TestWhitebad	80	PlainBlackright	23	1	725	bm23.jpg
10919	14:37	3.0.6.0	4	57	demografica	1	sesso	Femmina	1	50279	0
10919	14:37	3.0.6.0	4	57	demografica	1	età	21	1	50279	0
10919	14:37	3.0.6.0	4	57	demografica	1	occupazio	stud	1	50279	0
10919	14:37	3.0.6.0	4	57	demografica	1	edu	sup	1	50279	0
10919	14:37	3.0.6.0	4	57	demografica	4	pol1	2	1	37038	0
10919	14:37	3.0.6.0	4	57	demografica	4	pol2	3	1	37038	0
11519	10:42	3.0.6.0	5	1	consenso	1	consenso	Disponibile a partecipare alla ricerca nei termini sopra indicati	1	24725	0
11519	10:42	3.0.6.0	5	21	badgood	1	reminder	57	1	2683	Controlla le categorie - premi SPAZIO per cominciare
11519	10:42	3.0.6.0	5	21	badgood	2	Plaingoodright	23	1	1367	piacere
11519	10:42	3.0.6.0	5	21	badgood	4	Plainbadleft	18	1	589	fallimento
11519	10:42	3.0.6.0	5	21	badgood	6	Plainbadleft	23	0	433	orribile
11519	10:42	3.0.6.0	5	21	badgood	8	Plaingoodright	23	1	1438	felicità
11519	10:42	3.0.6.0	5	21	badgood	10	Plaingoodright	23	1	1179	gioia
11519	10:42	3.0.6.0	5	21	badgood	12	Plaingoodright	23	1	804	buono
11519	10:42	3.0.6.0	5	21	badgood	14	Plainbadleft	18	1	522	nocivo
11519	10:42	3.0.6.0	5	21	badgood	16	Plaingoodright	23	1	545	amore
11519	10:42	3.0.6.0	5	21	badgood	18	Plainbadleft	18	1	990	terribile
11519	10:42	3.0.6.0	5	21	badgood	20	Plainbadleft	18	1	505	cattivo
11519	10:42	3.0.6.0	5	21	badgood	22	Plainbadleft	18	1	669	odio
11519	10:42	3.0.6.0	5	21	badgood	24	Plainbadleft	18	1	642	male
11519	10:42	3.0.6.0	5	21	badgood	26	Plaingoodright	23	1	680	gloria
11519	10:42	3.0.6.0	5	21	badgood	28	Plainbadleft	18	1	679	disastro
11519	10:42	3.0.6.0	5	21	badgood	30	Plainbadleft	18	1	558	terribile
11519	10:42	3.0.6.0	5	21	badgood	32	Plaingoodright	23	1	541	pace
11519	10:42	3.0.6.0	5	21	badgood	34	Plaingoodright	23	1	662	ridere
11519	10:42	3.0.6.0	5	21	badgood	36	Plaingoodright	23	1	487	buono
11519	10:42	3.0.6.0	5	21	badgood	38	Plainbadleft	18	1	511	cattivo
11519	10:42	3.0.6.0	5	21	badgood	40	Plaingoodright	23	1	539	ridere
11519	10:42	3.0.6.0	5	32	WhiteBlack2nd	1	reminder	57	1	3029	Controlla le categorie - premi SPAZIO per cominciare
11519	10:42	3.0.6.0	5	32	WhiteBlack2nd	2	PlainWhiteright	23	1	797	wf3.jpg
11519	10:42	3.0.6.0	5	32	WhiteBlack2nd	4	PlainWhiteright	23	1	444	wf2.jpg
11519	10:42	3.0.6.0	5	32	WhiteBlack2nd	6	PlainWhiteright	18	0	1006	wm4.jpg
11519	10:42	3.0.6.0	5	32	WhiteBlack2nd	8	PlainWhiteright	23	1	1446	wm1.jpg
11519	10:42	3.0.6.0	5	32	WhiteBlack2nd	10	PlainBlackleft	18	1	1191	bf56.jpg
11519	10:42	3.0.6.0	5	32	WhiteBlack2nd	12	PlainBlackleft	18	1	1125	bf23.jpg
11519	10:42	3.0.6.0	5	32	WhiteBlack2nd	14	PlainBlackleft	18	1	565	bf14.jpg
11519	10:42	3.0.6.0	5	32	WhiteBlack2nd	16	PlainWhiteright	23	1	839	wf6.jpg
11519	10:42	3.0.6.0	5	32	WhiteBlack2nd	18	PlainWhiteright	23	1	709	wm6.jpg
11519	10:42	3.0.6.0	5	32	WhiteBlack2nd	20	PlainBlackleft	18	1	953	bm56.jpg
11519	10:42	3.0.6.0	5	32	WhiteBlack2nd	22	PlainBlackleft	18	1	392	bm23.jpg
11519	10:42	3.0.6.0	5	32	WhiteBlack2nd	24	PlainWhiteright	23	1	631	wm6.jpg
11519	10:42	3.0.6.0	5	32	WhiteBlack2nd	26	PlainWhiteright	23	1	469	wf6.jpg
11519	10:42	3.0.6.0	5	32	WhiteBlack2nd	28	PlainBlackleft	18	1	621	bm14.jpg
11519	10:42	3.0.6.0	5	32	WhiteBlack2nd	30	PlainBlackleft	18	1	537	bm23.jpg
11519	10:42	3.0.6.0	5	32	WhiteBlack2nd	32	PlainWhiteright	23	1	645	wm4.jpg
11519	10:42	3.0.6.0	5	32	WhiteBlack2nd	34	PlainBlackleft	18	1	1374	bm56.jpg
11519	10:42	3.0.6.0	5	32	WhiteBlack2nd	36	PlainWhiteright	23	1	1311	wm1.jpg
11519	10:42	3.0.6.0	5	32	WhiteBlack2nd	38	PlainBlackleft	18	1	484	bf23.jpg
11519	10:42	3.0.6.0	5	32	WhiteBlack2nd	40	PlainBlackleft	18	1	446	bm14.jpg
11519	10:42	3.0.6.0	5	34	badgood	1	reminder	57	1	1873	Controlla le categorie - premi SPAZIO per cominciare
11519	10:42	3.0.6.0	5	34	badgood	2	Plaingoodright	23	1	1123	pace
11519	10:42	3.0.6.0	5	34	badgood	4	Plaingoodright	23	1	529	gioia
11519	10:42	3.0.6.0	5	34	badgood	6	Plaingoodright	23	1	467	ridere
11519	10:42	3.0.6.0	5	34	badgood	8	Plainbadleft	18	1	503	odio
11519	10:42	3.0.6.0	5	34	badgood	10	Plaingoodright	23	1	460	piacere
11519	10:42	3.0.6.0	5	34	badgood	12	Plaingoodright	23	1	549	buono
11519	10:42	3.0.6.0	5	34	badgood	14	Plainbadleft	18	1	522	disastro
11519	10:42	3.0.6.0	5	34	badgood	16	Plaingoodright	23	1	777	amore
11519	10:42	3.0.6.0	5	34	badgood	18	Plaingoodright	23	1	562	felicità
11519	10:42	3.0.6.0	5	34	badgood	20	Plainbadleft	18	1	649	orribile
11519	10:42	3.0.6.0	5	34	badgood	22	Plainbadleft	18	1	575	terribile
11519	10:42	3.0.6.0	5	34	badgood	24	Plainbadleft	18	1	529	nocivo
11519	10:42	3.0.6.0	5	34	badgood	26	Plainbadleft	18	1	523	male
11519	10:42	3.0.6.0	5	34	badgood	28	Plainbadleft	18	1	530	cattivo
11519	10:42	3.0.6.0	5	34	badgood	30	Plaingoodright	23	1	547	gloria
11519	10:42	3.0.6.0	5	34	badgood	32	Plainbadleft	18	1	1463	fallimento
11519	10:42	3.0.6.0	5	34	badgood	34	Plaingoodright	23	1	599	felicità
11519	10:42	3.0.6.0	5	34	badgood	36	Plaingoodright	23	1	535	pace
11519	10:42	3.0.6.0	5	34	badgood	38	Plainbadleft	18	1	688	odio
11519	10:42	3.0.6.0	5	34	badgood	40	Plainbadleft	18	1	439	disastro
11519	10:42	3.0.6.0	5	36	PracticeWhitegood	1	reminder	57	1	4837	Controlla le categorie - premi SPAZIO per cominciare
11519	10:42	3.0.6.0	5	36	PracticeWhitegood	2	Plaingoodright	23	1	1242	piacere
11519	10:42	3.0.6.0	5	36	PracticeWhitegood	4	Plainbadleft	18	1	856	disastro
11519	10:42	3.0.6.0	5	36	PracticeWhitegood	6	Plainbadleft	18	1	2457	odio
11519	10:42	3.0.6.0	5	36	PracticeWhitegood	8	PlainBlackleft	18	1	1672	bf56.jpg
11519	10:42	3.0.6.0	5	36	PracticeWhitegood	10	PlainBlackleft	18	1	565	bf23.jpg
11519	10:42	3.0.6.0	5	36	PracticeWhitegood	12	PlainWhiteright	23	1	1343	wm6.jpg
11519	10:42	3.0.6.0	5	36	PracticeWhitegood	14	Plainbadleft	18	1	1759	male
11519	10:42	3.0.6.0	5	36	PracticeWhitegood	16	Plaingoodright	23	1	596	amore
11519	10:42	3.0.6.0	5	36	PracticeWhitegood	18	PlainWhiteright	23	1	1107	wm1.jpg
11519	10:42	3.0.6.0	5	36	PracticeWhitegood	20	PlainWhiteright	23	1	598	wf6.jpg
11519	10:42	3.0.6.0	5	36	PracticeWhitegood	22	PlainWhiteright	23	1	1069	wf3.jpg
11519	10:42	3.0.6.0	5	36	PracticeWhitegood	24	PlainBlackleft	18	1	568	bm23.jpg
11519	10:42	3.0.6.0	5	36	PracticeWhitegood	26	Plainbadleft	18	1	727	orribile
11519	10:42	3.0.6.0	5	36	PracticeWhitegood	28	Plainbadleft	18	1	1086	nocivo
11519	10:42	3.0.6.0	5	36	PracticeWhitegood	30	PlainBlackleft	18	1	1447	bf14.jpg
11519	10:42	3.0.6.0	5	36	PracticeWhitegood	32	Plaingoodright	23	1	685	ridere
11519	10:42	3.0.6.0	5	36	PracticeWhitegood	34	Plaingoodright	18	0	699	buono
11519	10:42	3.0.6.0	5	36	PracticeWhitegood	36	PlainBlackleft	18	1	1759	bm56.jpg
11519	10:42	3.0.6.0	5	36	PracticeWhitegood	38	Plaingoodright	23	1	892	felicità
11519	10:42	3.0.6.0	5	36	PracticeWhitegood	40	PlainWhiteright	23	1	589	wf2.jpg
11519	10:42	3.0.6.0	5	37	TestWhitegood	1	reminder1	57	1	644	Riposati se ne senti il bisogno - premi SPAZIO per cominciare
11519	10:42	3.0.6.0	5	37	TestWhitegood	2	PlainBlackleft	18	1	582	bm23.jpg
11519	10:42	3.0.6.0	5	37	TestWhitegood	4	Plaingoodright	23	1	594	felicità
11519	10:42	3.0.6.0	5	37	TestWhitegood	6	PlainWhiteright	23	1	529	wf3.jpg
11519	10:42	3.0.6.0	5	37	TestWhitegood	8	PlainBlackleft	18	1	594	bm56.jpg
11519	10:42	3.0.6.0	5	37	TestWhitegood	10	PlainWhiteright	23	1	505	wm1.jpg
11519	10:42	3.0.6.0	5	37	TestWhitegood	12	Plainbadleft	18	1	821	odio
11519	10:42	3.0.6.0	5	37	TestWhitegood	14	PlainBlackleft	18	1	681	bm14.jpg
11519	10:42	3.0.6.0	5	37	TestWhitegood	16	Plainbadleft	18	1	608	disastro
11519	10:42	3.0.6.0	5	37	TestWhitegood	18	PlainBlackleft	18	1	441	bf14.jpg
11519	10:42	3.0.6.0	5	37	TestWhitegood	20	PlainBlackleft	18	1	424	bf23.jpg
11519	10:42	3.0.6.0	5	37	TestWhitegood	22	Plainbadleft	18	1	541	terribile
11519	10:42	3.0.6.0	5	37	TestWhitegood	24	PlainBlackleft	18	1	673	bf56.jpg
11519	10:42	3.0.6.0	5	37	TestWhitegood	26	Plaingoodright	23	1	613	amore
11519	10:42	3.0.6.0	5	37	TestWhitegood	28	PlainBlackleft	18	1	479	bf56.jpg
11519	10:42	3.0.6.0	5	37	TestWhitegood	30	Plainbadleft	23	0	606	fallimento
11519	10:42	3.0.6.0	5	37	TestWhitegood	32	PlainWhiteright	23	1	1703	wf6.jpg
11519	10:42	3.0.6.0	5	37	TestWhitegood	34	PlainWhiteright	18	0	2002	wm4.jpg
11519	10:42	3.0.6.0	5	37	TestWhitegood	36	Plaingoodright	23	1	574	buono
11519	10:42	3.0.6.0	5	37	TestWhitegood	38	PlainWhiteright	23	1	664	wm6.jpg
11519	10:42	3.0.6.0	5	37	TestWhitegood	40	PlainWhiteright	23	1	860	wf2.jpg
11519	10:42	3.0.6.0	5	37	TestWhitegood	42	Plainbadleft	18	1	549	cattivo
11519	10:42	3.0.6.0	5	37	TestWhitegood	44	Plainbadleft	18	1	577	orribile
11519	10:42	3.0.6.0	5	37	TestWhitegood	46	PlainBlackleft	18	1	478	bf14.jpg
11519	10:42	3.0.6.0	5	37	TestWhitegood	48	Plainbadleft	18	1	493	male
11519	10:42	3.0.6.0	5	37	TestWhitegood	50	PlainWhiteright	23	1	622	wf3.jpg
11519	10:42	3.0.6.0	5	37	TestWhitegood	52	Plainbadleft	18	1	555	nocivo
11519	10:42	3.0.6.0	5	37	TestWhitegood	54	Plaingoodright	23	1	711	pace
11519	10:42	3.0.6.0	5	37	TestWhitegood	56	Plaingoodright	23	1	475	gloria
11519	10:42	3.0.6.0	5	37	TestWhitegood	58	PlainBlackleft	18	1	706	bm56.jpg
11519	10:42	3.0.6.0	5	37	TestWhitegood	60	PlainWhiteright	23	1	622	wf6.jpg
11519	10:42	3.0.6.0	5	37	TestWhitegood	62	Plaingoodright	23	1	911	ridere
11519	10:42	3.0.6.0	5	37	TestWhitegood	64	PlainWhiteright	18	0	982	wm4.jpg
11519	10:42	3.0.6.0	5	37	TestWhitegood	66	Plaingoodright	23	1	1055	gioia
11519	10:42	3.0.6.0	5	37	TestWhitegood	68	Plaingoodright	23	1	479	piacere
11519	10:42	3.0.6.0	5	37	TestWhitegood	70	PlainBlackleft	18	1	718	bm23.jpg
11519	10:42	3.0.6.0	5	37	TestWhitegood	72	Plainbadleft	18	1	677	male
11519	10:42	3.0.6.0	5	37	TestWhitegood	74	PlainWhiteright	23	1	732	wm6.jpg
11519	10:42	3.0.6.0	5	37	TestWhitegood	76	Plaingoodright	23	1	621	felicità
11519	10:42	3.0.6.0	5	37	TestWhitegood	78	Plainbadleft	18	1	815	orribile
11519	10:42	3.0.6.0	5	37	TestWhitegood	80	Plaingoodright	23	1	800	gloria
11519	10:42	3.0.6.0	5	39	WhiteBlack	1	reminder	57	1	3463	Controlla le categorie - premi SPAZIO per cominciare
11519	10:42	3.0.6.0	5	39	WhiteBlack	2	PlainBlackright	23	1	959	bm56.jpg
11519	10:42	3.0.6.0	5	39	WhiteBlack	4	PlainWhiteleft	18	1	589	wf2.jpg
11519	10:42	3.0.6.0	5	39	WhiteBlack	6	PlainWhiteleft	18	1	1841	wf6.jpg
11519	10:42	3.0.6.0	5	39	WhiteBlack	8	PlainWhiteleft	18	1	654	wf3.jpg
11519	10:42	3.0.6.0	5	39	WhiteBlack	10	PlainWhiteleft	18	1	576	wm6.jpg
11519	10:42	3.0.6.0	5	39	WhiteBlack	12	PlainWhiteleft	18	1	697	wm1.jpg
11519	10:42	3.0.6.0	5	39	WhiteBlack	14	PlainWhiteleft	18	1	1197	wm4.jpg
11519	10:42	3.0.6.0	5	39	WhiteBlack	16	PlainBlackright	23	1	715	bf56.jpg
11519	10:42	3.0.6.0	5	39	WhiteBlack	18	PlainBlackright	23	1	554	bf23.jpg
11519	10:42	3.0.6.0	5	39	WhiteBlack	20	PlainBlackright	23	1	497	bf14.jpg
11519	10:42	3.0.6.0	5	39	WhiteBlack	22	PlainBlackright	23	1	573	bm14.jpg
11519	10:42	3.0.6.0	5	39	WhiteBlack	24	PlainWhiteleft	18	1	750	wm4.jpg
11519	10:42	3.0.6.0	5	39	WhiteBlack	26	PlainBlackright	23	1	973	bm23.jpg
11519	10:42	3.0.6.0	5	39	WhiteBlack	28	PlainBlackright	23	1	438	bf14.jpg
11519	10:42	3.0.6.0	5	39	WhiteBlack	30	PlainWhiteleft	18	1	509	wf2.jpg
11519	10:42	3.0.6.0	5	39	WhiteBlack	32	PlainBlackright	23	1	684	bf56.jpg
11519	10:42	3.0.6.0	5	39	WhiteBlack	34	PlainBlackright	23	1	869	bm23.jpg
11519	10:42	3.0.6.0	5	39	WhiteBlack	36	PlainWhiteleft	18	1	609	wm6.jpg
11519	10:42	3.0.6.0	5	39	WhiteBlack	38	PlainBlackright	23	1	491	bf23.jpg
11519	10:42	3.0.6.0	5	39	WhiteBlack	40	PlainWhiteleft	18	1	620	wm1.jpg
11519	10:42	3.0.6.0	5	41	PracticeWhitebad	1	reminder	57	1	5823	Controlla le categorie - premi SPAZIO per cominciare
11519	10:42	3.0.6.0	5	41	PracticeWhitebad	2	PlainWhiteleft	18	1	1739	wf6.jpg
11519	10:42	3.0.6.0	5	41	PracticeWhitebad	4	Plaingoodright	23	1	2195	piacere
11519	10:42	3.0.6.0	5	41	PracticeWhitebad	6	PlainBlackright	23	1	919	bf56.jpg
11519	10:42	3.0.6.0	5	41	PracticeWhitebad	8	PlainWhiteleft	18	1	966	wf2.jpg
11519	10:42	3.0.6.0	5	41	PracticeWhitebad	10	Plaingoodright	23	1	1756	gloria
11519	10:42	3.0.6.0	5	41	PracticeWhitebad	12	PlainBlackright	23	1	1201	bm56.jpg
11519	10:42	3.0.6.0	5	41	PracticeWhitebad	14	Plaingoodright	23	1	1143	pace
11519	10:42	3.0.6.0	5	41	PracticeWhitebad	16	PlainWhiteleft	18	1	954	wm4.jpg
11519	10:42	3.0.6.0	5	41	PracticeWhitebad	18	PlainBlackright	23	1	785	bf14.jpg
11519	10:42	3.0.6.0	5	41	PracticeWhitebad	20	Plainbadleft	18	1	1181	fallimento
11519	10:42	3.0.6.0	5	41	PracticeWhitebad	22	PlainWhiteleft	18	1	2032	wm1.jpg
11519	10:42	3.0.6.0	5	41	PracticeWhitebad	24	PlainWhiteleft	18	1	636	wf3.jpg
11519	10:42	3.0.6.0	5	41	PracticeWhitebad	26	PlainBlackright	23	1	683	bf23.jpg
11519	10:42	3.0.6.0	5	41	PracticeWhitebad	28	Plainbadleft	18	1	1346	odio
11519	10:42	3.0.6.0	5	41	PracticeWhitebad	30	Plaingoodright	23	1	549	gioia
11519	10:42	3.0.6.0	5	41	PracticeWhitebad	32	Plaingoodright	23	1	561	buono
11519	10:42	3.0.6.0	5	41	PracticeWhitebad	34	Plainbadleft	18	1	552	disastro
11519	10:42	3.0.6.0	5	41	PracticeWhitebad	36	Plainbadleft	18	1	676	nocivo
11519	10:42	3.0.6.0	5	41	PracticeWhitebad	38	PlainBlackright	23	1	1355	bm23.jpg
11519	10:42	3.0.6.0	5	41	PracticeWhitebad	40	Plainbadleft	18	1	1462	male
11519	10:42	3.0.6.0	5	42	TestWhitebad	1	reminder1	57	1	1161	Riposati se ne senti il bisogno - premi SPAZIO per cominciare
11519	10:42	3.0.6.0	5	42	TestWhitebad	2	Plainbadleft	18	1	1183	fallimento
11519	10:42	3.0.6.0	5	42	TestWhitebad	4	Plaingoodright	23	1	1039	gioia
11519	10:42	3.0.6.0	5	42	TestWhitebad	6	Plainbadleft	18	1	942	cattivo
11519	10:42	3.0.6.0	5	42	TestWhitebad	8	PlainBlackright	23	1	1921	bm23.jpg
11519	10:42	3.0.6.0	5	42	TestWhitebad	10	PlainWhiteleft	18	1	718	wf6.jpg
11519	10:42	3.0.6.0	5	42	TestWhitebad	12	Plaingoodright	23	1	1053	pace
11519	10:42	3.0.6.0	5	42	TestWhitebad	14	Plaingoodright	23	1	878	felicità
11519	10:42	3.0.6.0	5	42	TestWhitebad	16	Plainbadleft	18	1	556	disastro
11519	10:42	3.0.6.0	5	42	TestWhitebad	18	PlainWhiteleft	18	1	1355	wm4.jpg
11519	10:42	3.0.6.0	5	42	TestWhitebad	20	PlainBlackright	23	1	1105	bm56.jpg
11519	10:42	3.0.6.0	5	42	TestWhitebad	22	PlainBlackright	23	1	468	bf14.jpg
11519	10:42	3.0.6.0	5	42	TestWhitebad	24	Plainbadleft	18	1	856	nocivo
11519	10:42	3.0.6.0	5	42	TestWhitebad	26	Plaingoodright	23	1	578	piacere
11519	10:42	3.0.6.0	5	42	TestWhitebad	28	Plainbadleft	18	1	611	terribile
11519	10:42	3.0.6.0	5	42	TestWhitebad	30	PlainBlackright	23	1	981	bm14.jpg
11519	10:42	3.0.6.0	5	42	TestWhitebad	32	PlainWhiteleft	18	1	488	wm1.jpg
11519	10:42	3.0.6.0	5	42	TestWhitebad	34	PlainBlackright	23	1	506	bf23.jpg
11519	10:42	3.0.6.0	5	42	TestWhitebad	36	Plaingoodright	23	1	694	amore
11519	10:42	3.0.6.0	5	42	TestWhitebad	38	PlainWhiteleft	18	1	951	wm6.jpg
11519	10:42	3.0.6.0	5	42	TestWhitebad	40	PlainWhiteleft	23	0	918	wf3.jpg
11519	10:42	3.0.6.0	5	42	TestWhitebad	42	PlainWhiteleft	18	1	1452	wf2.jpg
11519	10:42	3.0.6.0	5	42	TestWhitebad	44	Plaingoodright	23	1	940	ridere
11519	10:42	3.0.6.0	5	42	TestWhitebad	46	Plaingoodright	23	1	533	buono
11519	10:42	3.0.6.0	5	42	TestWhitebad	48	Plaingoodright	23	1	439	gloria
11519	10:42	3.0.6.0	5	42	TestWhitebad	50	PlainBlackright	18	0	614	bf56.jpg
11519	10:42	3.0.6.0	5	42	TestWhitebad	52	Plainbadleft	18	1	807	male
11519	10:42	3.0.6.0	5	42	TestWhitebad	54	Plainbadleft	18	1	2070	orribile
11519	10:42	3.0.6.0	5	42	TestWhitebad	56	Plaingoodright	23	1	648	piacere
11519	10:42	3.0.6.0	5	42	TestWhitebad	58	PlainWhiteleft	18	1	873	wf6.jpg
11519	10:42	3.0.6.0	5	42	TestWhitebad	60	Plainbadleft	18	1	797	odio
11519	10:42	3.0.6.0	5	42	TestWhitebad	62	PlainBlackright	23	1	580	bm14.jpg
11519	10:42	3.0.6.0	5	42	TestWhitebad	64	PlainWhiteleft	18	1	1696	wm6.jpg
11519	10:42	3.0.6.0	5	42	TestWhitebad	66	PlainBlackright	23	1	848	bf23.jpg
11519	10:42	3.0.6.0	5	42	TestWhitebad	68	PlainWhiteleft	23	0	1153	wm4.jpg
11519	10:42	3.0.6.0	5	42	TestWhitebad	70	Plainbadleft	18	1	844	orribile
11519	10:42	3.0.6.0	5	42	TestWhitebad	72	Plaingoodright	23	1	555	buono
11519	10:42	3.0.6.0	5	42	TestWhitebad	74	PlainWhiteleft	18	1	866	wf3.jpg
11519	10:42	3.0.6.0	5	42	TestWhitebad	76	PlainBlackright	23	1	573	bm23.jpg
11519	10:42	3.0.6.0	5	42	TestWhitebad	78	Plainbadleft	18	1	695	male
11519	10:42	3.0.6.0	5	42	TestWhitebad	80	PlainBlackright	23	1	920	bm56.jpg
11519	10:42	3.0.6.0	5	57	demografica	1	sesso	Femmina	1	30075	0
11519	10:42	3.0.6.0	5	57	demografica	1	età	21	1	30075	0
11519	10:42	3.0.6.0	5	57	demografica	1	occupazio	stud	1	30075	0
11519	10:42	3.0.6.0	5	57	demografica	1	edu	sup	1	30075	0
11519	10:42	3.0.6.0	5	57	demografica	4	pol1	4	1	48697	0
11519	10:42	3.0.6.0	5	57	demografica	4	pol2	4	1	48697	0
11819	10:29	3.0.6.0	6	1	consenso	1	consenso	Disponibile a partecipare alla ricerca nei termini sopra indicati	1	17934	0
11819	10:29	3.0.6.0	6	21	badgood	1	reminder	57	1	2973	Controlla le categorie - premi SPAZIO per cominciare
11819	10:29	3.0.6.0	6	21	badgood	2	Plainbadleft	18	1	755	cattivo
11819	10:29	3.0.6.0	6	21	badgood	4	Plainbadleft	18	1	535	nocivo
11819	10:29	3.0.6.0	6	21	badgood	6	Plaingoodright	23	1	584	gioia
11819	10:29	3.0.6.0	6	21	badgood	8	Plaingoodright	23	1	564	ridere
11819	10:29	3.0.6.0	6	21	badgood	10	Plaingoodright	23	1	499	piacere
11819	10:29	3.0.6.0	6	21	badgood	12	Plainbadleft	18	1	709	terribile
11819	10:29	3.0.6.0	6	21	badgood	14	Plaingoodright	23	1	721	pace
11819	10:29	3.0.6.0	6	21	badgood	16	Plaingoodright	23	1	616	buono
11819	10:29	3.0.6.0	6	21	badgood	18	Plaingoodright	23	1	433	amore
11819	10:29	3.0.6.0	6	21	badgood	20	Plaingoodright	23	1	437	gloria
11819	10:29	3.0.6.0	6	21	badgood	22	Plainbadleft	18	1	541	odio
11819	10:29	3.0.6.0	6	21	badgood	24	Plaingoodright	23	1	558	felicità
11819	10:29	3.0.6.0	6	21	badgood	26	Plainbadleft	18	1	565	orribile
11819	10:29	3.0.6.0	6	21	badgood	28	Plainbadleft	18	1	524	male
11819	10:29	3.0.6.0	6	21	badgood	30	Plaingoodright	23	1	531	gioia
11819	10:29	3.0.6.0	6	21	badgood	32	Plainbadleft	18	1	757	fallimento
11819	10:29	3.0.6.0	6	21	badgood	34	Plainbadleft	18	1	579	disastro
11819	10:29	3.0.6.0	6	21	badgood	36	Plainbadleft	18	1	541	terribile
11819	10:29	3.0.6.0	6	21	badgood	38	Plainbadleft	18	1	486	odio
11819	10:29	3.0.6.0	6	21	badgood	40	Plaingoodright	23	1	541	felicità
11819	10:29	3.0.6.0	6	32	WhiteBlack	1	reminder	57	1	4697	Controlla le categorie - premi SPAZIO per cominciare
11819	10:29	3.0.6.0	6	32	WhiteBlack	2	PlainWhiteleft	18	1	1596	wf2.jpg
11819	10:29	3.0.6.0	6	32	WhiteBlack	4	PlainWhiteleft	18	1	490	wm1.jpg
11819	10:29	3.0.6.0	6	32	WhiteBlack	6	PlainWhiteleft	18	1	596	wm4.jpg
11819	10:29	3.0.6.0	6	32	WhiteBlack	8	PlainWhiteleft	18	1	482	wm6.jpg
11819	10:29	3.0.6.0	6	32	WhiteBlack	10	PlainBlackright	23	1	500	bf23.jpg
11819	10:29	3.0.6.0	6	32	WhiteBlack	12	PlainBlackright	23	1	616	bf56.jpg
11819	10:29	3.0.6.0	6	32	WhiteBlack	14	PlainBlackright	23	1	444	bm23.jpg
11819	10:29	3.0.6.0	6	32	WhiteBlack	16	PlainWhiteleft	18	1	542	wf3.jpg
11819	10:29	3.0.6.0	6	32	WhiteBlack	18	PlainWhiteleft	18	1	538	wf6.jpg
11819	10:29	3.0.6.0	6	32	WhiteBlack	20	PlainBlackright	23	1	511	bm56.jpg
11819	10:29	3.0.6.0	6	32	WhiteBlack	22	PlainBlackright	23	1	534	bm14.jpg
11819	10:29	3.0.6.0	6	32	WhiteBlack	24	PlainWhiteleft	18	1	655	wf3.jpg
11819	10:29	3.0.6.0	6	32	WhiteBlack	26	PlainBlackright	23	1	545	bf14.jpg
11819	10:29	3.0.6.0	6	32	WhiteBlack	28	PlainBlackright	23	1	1661	bf56.jpg
11819	10:29	3.0.6.0	6	32	WhiteBlack	30	PlainWhiteleft	18	1	496	wm1.jpg
11819	10:29	3.0.6.0	6	32	WhiteBlack	32	PlainBlackright	23	1	521	bf23.jpg
11819	10:29	3.0.6.0	6	32	WhiteBlack	34	PlainBlackright	23	1	592	bm56.jpg
11819	10:29	3.0.6.0	6	32	WhiteBlack	36	PlainWhiteleft	18	1	927	wf6.jpg
11819	10:29	3.0.6.0	6	32	WhiteBlack	38	PlainBlackright	23	1	560	bm23.jpg
11819	10:29	3.0.6.0	6	32	WhiteBlack	40	PlainWhiteleft	18	1	463	wm6.jpg
11819	10:29	3.0.6.0	6	34	badgood	1	reminder	57	1	2395	Controlla le categorie - premi SPAZIO per cominciare
11819	10:29	3.0.6.0	6	34	badgood	2	Plainbadleft	18	1	964	odio
11819	10:29	3.0.6.0	6	34	badgood	4	Plainbadleft	18	1	578	nocivo
11819	10:29	3.0.6.0	6	34	badgood	6	Plaingoodright	23	1	524	felicità
11819	10:29	3.0.6.0	6	34	badgood	8	Plaingoodright	23	1	875	buono
11819	10:29	3.0.6.0	6	34	badgood	10	Plainbadleft	18	1	655	disastro
11819	10:29	3.0.6.0	6	34	badgood	12	Plaingoodright	23	1	568	amore
11819	10:29	3.0.6.0	6	34	badgood	14	Plaingoodright	23	1	1159	gloria
11819	10:29	3.0.6.0	6	34	badgood	16	Plainbadleft	18	1	581	cattivo
11819	10:29	3.0.6.0	6	34	badgood	18	Plainbadleft	18	1	1134	male
11819	10:29	3.0.6.0	6	34	badgood	20	Plainbadleft	18	1	535	fallimento
11819	10:29	3.0.6.0	6	34	badgood	22	Plaingoodright	23	1	593	pace
11819	10:29	3.0.6.0	6	34	badgood	24	Plaingoodright	23	1	565	piacere
11819	10:29	3.0.6.0	6	34	badgood	26	Plaingoodright	23	1	588	ridere
11819	10:29	3.0.6.0	6	34	badgood	28	Plainbadleft	18	1	664	terribile
11819	10:29	3.0.6.0	6	34	badgood	30	Plaingoodright	23	1	812	gioia
11819	10:29	3.0.6.0	6	34	badgood	32	Plaingoodright	23	1	733	pace
11819	10:29	3.0.6.0	6	34	badgood	34	Plainbadleft	18	1	767	orribile
11819	10:29	3.0.6.0	6	34	badgood	36	Plainbadleft	18	1	581	terribile
11819	10:29	3.0.6.0	6	34	badgood	38	Plaingoodright	23	1	879	buono
11819	10:29	3.0.6.0	6	34	badgood	40	Plainbadleft	18	1	901	fallimento
11819	10:29	3.0.6.0	6	36	PracticeWhitebad	1	reminder	57	1	6490	Controlla le categorie - premi SPAZIO per cominciare
11819	10:29	3.0.6.0	6	36	PracticeWhitebad	2	Plainbadleft	18	1	1328	fallimento
11819	10:29	3.0.6.0	6	36	PracticeWhitebad	4	Plaingoodright	23	1	854	buono
11819	10:29	3.0.6.0	6	36	PracticeWhitebad	6	PlainWhiteleft	18	1	1863	wm4.jpg
11819	10:29	3.0.6.0	6	36	PracticeWhitebad	8	Plainbadleft	18	1	942	nocivo
11819	10:29	3.0.6.0	6	36	PracticeWhitebad	10	PlainBlackright	23	1	770	bm23.jpg
11819	10:29	3.0.6.0	6	36	PracticeWhitebad	12	Plainbadleft	18	1	1059	disastro
11819	10:29	3.0.6.0	6	36	PracticeWhitebad	14	PlainWhiteleft	18	1	639	wm6.jpg
11819	10:29	3.0.6.0	6	36	PracticeWhitebad	16	PlainBlackright	18	0	949	bm14.jpg
11819	10:29	3.0.6.0	6	36	PracticeWhitebad	18	PlainBlackright	23	1	1585	bf14.jpg
11819	10:29	3.0.6.0	6	36	PracticeWhitebad	20	PlainWhiteleft	18	1	828	wm1.jpg
11819	10:29	3.0.6.0	6	36	PracticeWhitebad	22	Plaingoodright	23	1	1840	gloria
11819	10:29	3.0.6.0	6	36	PracticeWhitebad	24	Plainbadleft	18	1	1189	odio
11819	10:29	3.0.6.0	6	36	PracticeWhitebad	26	Plaingoodright	23	1	744	gioia
11819	10:29	3.0.6.0	6	36	PracticeWhitebad	28	Plainbadleft	23	0	1956	orribile
11819	10:29	3.0.6.0	6	36	PracticeWhitebad	30	Plaingoodright	23	1	1406	pace
11819	10:29	3.0.6.0	6	36	PracticeWhitebad	32	PlainWhiteleft	18	1	1078	wf2.jpg
11819	10:29	3.0.6.0	6	36	PracticeWhitebad	34	PlainBlackright	23	1	988	bf56.jpg
11819	10:29	3.0.6.0	6	36	PracticeWhitebad	36	Plaingoodright	23	1	616	felicità
11819	10:29	3.0.6.0	6	36	PracticeWhitebad	38	PlainWhiteleft	18	1	841	wf3.jpg
11819	10:29	3.0.6.0	6	36	PracticeWhitebad	40	PlainBlackright	23	1	784	bm56.jpg
11819	10:29	3.0.6.0	6	37	TestWhitebad	1	reminder1	57	1	2086	Riposati se ne senti il bisogno - premi SPAZIO per cominciare
11819	10:29	3.0.6.0	6	37	TestWhitebad	2	PlainBlackright	23	1	901	bf14.jpg
11819	10:29	3.0.6.0	6	37	TestWhitebad	4	PlainBlackright	23	1	633	bm56.jpg
11819	10:29	3.0.6.0	6	37	TestWhitebad	6	PlainWhiteleft	18	1	688	wf6.jpg
11819	10:29	3.0.6.0	6	37	TestWhitebad	8	PlainWhiteleft	18	1	633	wf3.jpg
11819	10:29	3.0.6.0	6	37	TestWhitebad	10	Plaingoodright	23	1	1062	amore
11819	10:29	3.0.6.0	6	37	TestWhitebad	12	Plainbadleft	18	1	558	odio
11819	10:29	3.0.6.0	6	37	TestWhitebad	14	Plaingoodright	23	1	542	felicità
11819	10:29	3.0.6.0	6	37	TestWhitebad	16	Plaingoodright	23	1	599	gioia
11819	10:29	3.0.6.0	6	37	TestWhitebad	18	PlainBlackright	23	1	886	bf56.jpg
11819	10:29	3.0.6.0	6	37	TestWhitebad	20	PlainWhiteleft	18	1	543	wm1.jpg
11819	10:29	3.0.6.0	6	37	TestWhitebad	22	Plainbadleft	23	0	819	nocivo
11819	10:29	3.0.6.0	6	37	TestWhitebad	24	Plaingoodright	23	1	1740	pace
11819	10:29	3.0.6.0	6	37	TestWhitebad	26	PlainBlackright	23	1	598	bm14.jpg
11819	10:29	3.0.6.0	6	37	TestWhitebad	28	PlainBlackright	23	1	557	bm23.jpg
11819	10:29	3.0.6.0	6	37	TestWhitebad	30	Plaingoodright	23	1	1124	piacere
11819	10:29	3.0.6.0	6	37	TestWhitebad	32	Plainbadleft	18	1	618	terribile
11819	10:29	3.0.6.0	6	37	TestWhitebad	34	Plainbadleft	18	1	1060	fallimento
11819	10:29	3.0.6.0	6	37	TestWhitebad	36	PlainBlackright	23	1	967	bf23.jpg
11819	10:29	3.0.6.0	6	37	TestWhitebad	38	PlainBlackright	23	1	552	bf56.jpg
11819	10:29	3.0.6.0	6	37	TestWhitebad	40	Plaingoodright	23	1	949	gloria
11819	10:29	3.0.6.0	6	37	TestWhitebad	42	Plainbadleft	18	1	648	disastro
11819	10:29	3.0.6.0	6	37	TestWhitebad	44	PlainWhiteleft	18	1	1137	wm4.jpg
11819	10:29	3.0.6.0	6	37	TestWhitebad	46	Plaingoodright	23	1	1122	buono
11819	10:29	3.0.6.0	6	37	TestWhitebad	48	Plainbadleft	18	1	848	orribile
11819	10:29	3.0.6.0	6	37	TestWhitebad	50	PlainWhiteleft	18	1	865	wf2.jpg
11819	10:29	3.0.6.0	6	37	TestWhitebad	52	PlainBlackright	23	1	573	bm56.jpg
11819	10:29	3.0.6.0	6	37	TestWhitebad	54	PlainBlackright	23	1	759	bm23.jpg
11819	10:29	3.0.6.0	6	37	TestWhitebad	56	PlainWhiteleft	18	1	693	wm6.jpg
11819	10:29	3.0.6.0	6	37	TestWhitebad	58	Plaingoodright	23	1	879	ridere
11819	10:29	3.0.6.0	6	37	TestWhitebad	60	PlainWhiteleft	18	1	2229	wm6.jpg
11819	10:29	3.0.6.0	6	37	TestWhitebad	62	PlainBlackright	23	1	967	bf23.jpg
11819	10:29	3.0.6.0	6	37	TestWhitebad	64	Plainbadleft	18	1	1325	male
11819	10:29	3.0.6.0	6	37	TestWhitebad	66	Plaingoodright	23	1	515	amore
11819	10:29	3.0.6.0	6	37	TestWhitebad	68	Plainbadleft	18	1	599	cattivo
11819	10:29	3.0.6.0	6	37	TestWhitebad	70	Plainbadleft	18	1	646	cattivo
11819	10:29	3.0.6.0	6	37	TestWhitebad	72	PlainWhiteleft	18	1	1279	wf3.jpg
11819	10:29	3.0.6.0	6	37	TestWhitebad	74	Plaingoodright	23	1	1405	felicità
11819	10:29	3.0.6.0	6	37	TestWhitebad	76	PlainWhiteleft	18	1	885	wf2.jpg
11819	10:29	3.0.6.0	6	37	TestWhitebad	78	Plainbadleft	18	1	1044	disastro
11819	10:29	3.0.6.0	6	37	TestWhitebad	80	PlainWhiteleft	18	1	629	wm1.jpg
11819	10:29	3.0.6.0	6	39	WhiteBlack2nd	1	reminder	57	1	3200	Controlla le categorie - premi SPAZIO per cominciare
11819	10:29	3.0.6.0	6	39	WhiteBlack2nd	2	PlainWhiteright	23	1	763	wf6.jpg
11819	10:29	3.0.6.0	6	39	WhiteBlack2nd	4	PlainBlackleft	18	1	553	bm56.jpg
11819	10:29	3.0.6.0	6	39	WhiteBlack2nd	6	PlainWhiteright	23	1	520	wf3.jpg
11819	10:29	3.0.6.0	6	39	WhiteBlack2nd	8	PlainWhiteright	23	1	567	wm4.jpg
11819	10:29	3.0.6.0	6	39	WhiteBlack2nd	10	PlainBlackleft	18	1	545	bf23.jpg
11819	10:29	3.0.6.0	6	39	WhiteBlack2nd	12	PlainBlackleft	18	1	581	bf56.jpg
11819	10:29	3.0.6.0	6	39	WhiteBlack2nd	14	PlainWhiteright	23	1	633	wf2.jpg
11819	10:29	3.0.6.0	6	39	WhiteBlack2nd	16	PlainBlackleft	18	1	528	bf14.jpg
11819	10:29	3.0.6.0	6	39	WhiteBlack2nd	18	PlainWhiteright	23	1	522	wm6.jpg
11819	10:29	3.0.6.0	6	39	WhiteBlack2nd	20	PlainBlackleft	18	1	384	bm23.jpg
11819	10:29	3.0.6.0	6	39	WhiteBlack2nd	22	PlainWhiteright	23	1	413	wm1.jpg
11819	10:29	3.0.6.0	6	39	WhiteBlack2nd	24	PlainWhiteright	23	1	527	wm6.jpg
11819	10:29	3.0.6.0	6	39	WhiteBlack2nd	26	PlainWhiteright	23	1	520	wm4.jpg
11819	10:29	3.0.6.0	6	39	WhiteBlack2nd	28	PlainBlackleft	18	1	543	bm14.jpg
11819	10:29	3.0.6.0	6	39	WhiteBlack2nd	30	PlainBlackleft	18	1	556	bm56.jpg
11819	10:29	3.0.6.0	6	39	WhiteBlack2nd	32	PlainBlackleft	18	1	802	bf23.jpg
11819	10:29	3.0.6.0	6	39	WhiteBlack2nd	34	PlainWhiteright	23	1	481	wf2.jpg
11819	10:29	3.0.6.0	6	39	WhiteBlack2nd	36	PlainBlackleft	18	1	512	bm23.jpg
11819	10:29	3.0.6.0	6	39	WhiteBlack2nd	38	PlainBlackleft	18	1	831	bf56.jpg
11819	10:29	3.0.6.0	6	39	WhiteBlack2nd	40	PlainWhiteright	23	1	565	wm1.jpg
11819	10:29	3.0.6.0	6	41	PracticeWhitegood	1	reminder	57	1	3225	Controlla le categorie - premi SPAZIO per cominciare
11819	10:29	3.0.6.0	6	41	PracticeWhitegood	2	Plainbadleft	18	1	1138	terribile
11819	10:29	3.0.6.0	6	41	PracticeWhitegood	4	PlainWhiteright	23	1	701	wf6.jpg
11819	10:29	3.0.6.0	6	41	PracticeWhitegood	6	Plaingoodright	23	1	870	pace
11819	10:29	3.0.6.0	6	41	PracticeWhitegood	8	PlainWhiteright	23	1	733	wm1.jpg
11819	10:29	3.0.6.0	6	41	PracticeWhitegood	10	PlainWhiteright	23	1	558	wf2.jpg
11819	10:29	3.0.6.0	6	41	PracticeWhitegood	12	PlainWhiteright	23	1	533	wm6.jpg
11819	10:29	3.0.6.0	6	41	PracticeWhitegood	14	Plainbadleft	18	1	623	cattivo
11819	10:29	3.0.6.0	6	41	PracticeWhitegood	16	Plaingoodright	23	1	555	gloria
11819	10:29	3.0.6.0	6	41	PracticeWhitegood	18	Plainbadleft	18	1	511	odio
11819	10:29	3.0.6.0	6	41	PracticeWhitegood	20	Plaingoodright	23	1	467	gioia
11819	10:29	3.0.6.0	6	41	PracticeWhitegood	22	PlainBlackleft	18	1	807	bm23.jpg
11819	10:29	3.0.6.0	6	41	PracticeWhitegood	24	Plainbadleft	18	1	718	fallimento
11819	10:29	3.0.6.0	6	41	PracticeWhitegood	26	PlainWhiteright	23	1	2061	wm4.jpg
11819	10:29	3.0.6.0	6	41	PracticeWhitegood	28	PlainBlackleft	18	1	543	bm14.jpg
11819	10:29	3.0.6.0	6	41	PracticeWhitegood	30	Plaingoodright	18	0	643	felicità
11819	10:29	3.0.6.0	6	41	PracticeWhitegood	32	PlainBlackleft	18	1	1484	bm56.jpg
11819	10:29	3.0.6.0	6	41	PracticeWhitegood	34	Plainbadleft	18	1	874	orribile
11819	10:29	3.0.6.0	6	41	PracticeWhitegood	36	PlainBlackleft	18	1	1360	bf23.jpg
11819	10:29	3.0.6.0	6	41	PracticeWhitegood	38	Plaingoodright	23	1	758	amore
11819	10:29	3.0.6.0	6	41	PracticeWhitegood	40	PlainBlackleft	18	1	1412	bf56.jpg
11819	10:29	3.0.6.0	6	42	TestWhitegood	1	reminder1	57	1	1431	Riposati se ne senti il bisogno - premi SPAZIO per cominciare
11819	10:29	3.0.6.0	6	42	TestWhitegood	2	PlainWhiteright	23	1	621	wf3.jpg
11819	10:29	3.0.6.0	6	42	TestWhitegood	4	PlainBlackleft	18	1	545	bm14.jpg
11819	10:29	3.0.6.0	6	42	TestWhitegood	6	PlainWhiteright	23	1	509	wf2.jpg
11819	10:29	3.0.6.0	6	42	TestWhitegood	8	PlainBlackleft	18	1	548	bm23.jpg
11819	10:29	3.0.6.0	6	42	TestWhitegood	10	PlainWhiteright	23	1	560	wm6.jpg
11819	10:29	3.0.6.0	6	42	TestWhitegood	12	Plainbadleft	18	1	1119	nocivo
11819	10:29	3.0.6.0	6	42	TestWhitegood	14	PlainBlackleft	18	1	821	bm56.jpg
11819	10:29	3.0.6.0	6	42	TestWhitegood	16	PlainWhiteright	23	1	553	wf6.jpg
11819	10:29	3.0.6.0	6	42	TestWhitegood	18	Plaingoodright	23	1	806	amore
11819	10:29	3.0.6.0	6	42	TestWhitegood	20	Plaingoodright	23	1	628	piacere
11819	10:29	3.0.6.0	6	42	TestWhitegood	22	PlainWhiteright	23	1	632	wm4.jpg
11819	10:29	3.0.6.0	6	42	TestWhitegood	24	Plaingoodright	23	1	596	pace
11819	10:29	3.0.6.0	6	42	TestWhitegood	26	Plainbadleft	18	1	515	cattivo
11819	10:29	3.0.6.0	6	42	TestWhitegood	28	Plainbadleft	18	1	1175	terribile
11819	10:29	3.0.6.0	6	42	TestWhitegood	30	PlainBlackleft	18	1	631	bf56.jpg
11819	10:29	3.0.6.0	6	42	TestWhitegood	32	Plaingoodright	23	1	708	gloria
11819	10:29	3.0.6.0	6	42	TestWhitegood	34	PlainWhiteright	23	1	872	wm1.jpg
11819	10:29	3.0.6.0	6	42	TestWhitegood	36	Plainbadleft	23	0	948	disastro
11819	10:29	3.0.6.0	6	42	TestWhitegood	38	PlainBlackleft	18	1	1064	bf14.jpg
11819	10:29	3.0.6.0	6	42	TestWhitegood	40	Plaingoodright	23	1	715	felicità
11819	10:29	3.0.6.0	6	42	TestWhitegood	42	Plainbadleft	18	1	599	odio
11819	10:29	3.0.6.0	6	42	TestWhitegood	44	PlainWhiteright	23	1	670	wm6.jpg
11819	10:29	3.0.6.0	6	42	TestWhitegood	46	PlainBlackleft	18	1	869	bf23.jpg
11819	10:29	3.0.6.0	6	42	TestWhitegood	48	Plainbadleft	18	1	625	fallimento
11819	10:29	3.0.6.0	6	42	TestWhitegood	50	Plainbadleft	18	1	605	orribile
11819	10:29	3.0.6.0	6	42	TestWhitegood	52	Plaingoodright	23	1	795	gioia
11819	10:29	3.0.6.0	6	42	TestWhitegood	54	Plainbadleft	18	1	1127	male
11819	10:29	3.0.6.0	6	42	TestWhitegood	56	PlainBlackleft	18	1	704	bf56.jpg
11819	10:29	3.0.6.0	6	42	TestWhitegood	58	PlainBlackleft	18	1	540	bm14.jpg
11819	10:29	3.0.6.0	6	42	TestWhitegood	60	Plaingoodright	23	1	646	buono
11819	10:29	3.0.6.0	6	42	TestWhitegood	62	Plainbadleft	18	1	565	terribile
11819	10:29	3.0.6.0	6	42	TestWhitegood	64	Plaingoodright	23	1	627	ridere
11819	10:29	3.0.6.0	6	42	TestWhitegood	66	PlainWhiteright	18	0	575	wm1.jpg
11819	10:29	3.0.6.0	6	42	TestWhitegood	68	PlainWhiteright	18	0	601	wm4.jpg
11819	10:29	3.0.6.0	6	42	TestWhitegood	70	Plainbadleft	18	1	760	nocivo
11819	10:29	3.0.6.0	6	42	TestWhitegood	72	PlainWhiteright	23	1	1878	wf2.jpg
11819	10:29	3.0.6.0	6	42	TestWhitegood	74	Plaingoodright	18	0	763	ridere
11819	10:29	3.0.6.0	6	42	TestWhitegood	76	Plaingoodright	23	1	2666	buono
11819	10:29	3.0.6.0	6	42	TestWhitegood	78	PlainBlackleft	18	1	1515	bm56.jpg
11819	10:29	3.0.6.0	6	42	TestWhitegood	80	PlainBlackleft	18	1	896	bm23.jpg
11819	10:29	3.0.6.0	6	57	demografica	1	sesso	Maschio	1	24082	0
11819	10:29	3.0.6.0	6	57	demografica	1	età	20	1	24082	0
11819	10:29	3.0.6.0	6	57	demografica	1	occupazio	stud	1	24082	0
11819	10:29	3.0.6.0	6	57	demografica	1	edu	sup	1	24082	0
11819	10:29	3.0.6.0	6	57	demografica	4	pol1	3	1	72637	0
11819	10:29	3.0.6.0	6	57	demografica	4	pol2	2	1	72637	0
11819	11:01	3.0.6.0	7	1	consenso	1	consenso	Disponibile a partecipare alla ricerca nei termini sopra indicati	1	17497	0
11819	11:01	3.0.6.0	7	6	WhiteBlack2nd	1	reminder	57	0	11487	Controlla le categorie - premi SPAZIO per cominciare
11819	11:01	3.0.6.0	7	6	WhiteBlack2nd	2	PlainBlackleft	18	1	1053	bf23.jpg
11819	11:01	3.0.6.0	7	6	WhiteBlack2nd	4	PlainWhiteright	23	1	759	wf3.jpg
11819	11:01	3.0.6.0	7	6	WhiteBlack2nd	6	PlainWhiteright	18	0	1525	wm4.jpg
11819	11:01	3.0.6.0	7	6	WhiteBlack2nd	8	PlainBlackleft	18	1	1253	bm23.jpg
11819	11:01	3.0.6.0	7	6	WhiteBlack2nd	10	PlainBlackleft	18	1	1062	bm56.jpg
11819	11:01	3.0.6.0	7	6	WhiteBlack2nd	12	PlainWhiteright	23	1	657	wf6.jpg
11819	11:01	3.0.6.0	7	6	WhiteBlack2nd	14	PlainBlackleft	18	1	613	bm14.jpg
11819	11:01	3.0.6.0	7	6	WhiteBlack2nd	16	PlainBlackleft	18	1	591	bf14.jpg
11819	11:01	3.0.6.0	7	6	WhiteBlack2nd	18	PlainWhiteright	23	1	582	wm6.jpg
11819	11:01	3.0.6.0	7	6	WhiteBlack2nd	20	PlainWhiteright	23	1	778	wm1.jpg
11819	11:01	3.0.6.0	7	6	WhiteBlack2nd	22	PlainWhiteright	23	1	430	wf2.jpg
11819	11:01	3.0.6.0	7	6	WhiteBlack2nd	24	PlainWhiteright	23	1	501	wf3.jpg
11819	11:01	3.0.6.0	7	6	WhiteBlack2nd	26	PlainWhiteright	23	1	697	wm1.jpg
11819	11:01	3.0.6.0	7	6	WhiteBlack2nd	28	PlainBlackleft	18	1	557	bf56.jpg
11819	11:01	3.0.6.0	7	6	WhiteBlack2nd	30	PlainWhiteright	23	1	564	wm4.jpg
11819	11:01	3.0.6.0	7	6	WhiteBlack2nd	32	PlainWhiteright	23	1	581	wf6.jpg
11819	11:01	3.0.6.0	7	6	WhiteBlack2nd	34	PlainBlackleft	18	1	522	bm14.jpg
11819	11:01	3.0.6.0	7	6	WhiteBlack2nd	36	PlainBlackleft	18	1	457	bf14.jpg
11819	11:01	3.0.6.0	7	6	WhiteBlack2nd	38	PlainBlackleft	18	1	470	bf56.jpg
11819	11:01	3.0.6.0	7	6	WhiteBlack2nd	40	PlainBlackleft	18	1	484	bm56.jpg
11819	11:01	3.0.6.0	7	8	badgood	1	reminder	57	1	7984	Controlla le categorie - premi SPAZIO per cominciare
11819	11:01	3.0.6.0	7	8	badgood	2	Plainbadleft	18	1	775	terribile
11819	11:01	3.0.6.0	7	8	badgood	4	Plaingoodright	23	1	552	gioia
11819	11:01	3.0.6.0	7	8	badgood	6	Plainbadleft	18	1	540	odio
11819	11:01	3.0.6.0	7	8	badgood	8	Plaingoodright	23	1	517	ridere
11819	11:01	3.0.6.0	7	8	badgood	10	Plaingoodright	23	1	532	piacere
11819	11:01	3.0.6.0	7	8	badgood	12	Plainbadleft	18	1	526	orribile
11819	11:01	3.0.6.0	7	8	badgood	14	Plainbadleft	18	1	533	nocivo
11819	11:01	3.0.6.0	7	8	badgood	16	Plaingoodright	23	1	583	gloria
11819	11:01	3.0.6.0	7	8	badgood	18	Plainbadleft	18	1	491	cattivo
11819	11:01	3.0.6.0	7	8	badgood	20	Plaingoodright	23	1	540	pace
11819	11:01	3.0.6.0	7	8	badgood	22	Plainbadleft	18	1	454	male
11819	11:01	3.0.6.0	7	8	badgood	24	Plainbadleft	18	1	424	fallimento
11819	11:01	3.0.6.0	7	8	badgood	26	Plainbadleft	18	1	444	disastro
11819	11:01	3.0.6.0	7	8	badgood	28	Plainbadleft	18	1	443	cattivo
11819	11:01	3.0.6.0	7	8	badgood	30	Plaingoodright	18	0	362	felicità
11819	11:01	3.0.6.0	7	8	badgood	32	Plaingoodright	18	0	474	amore
11819	11:01	3.0.6.0	7	8	badgood	34	Plaingoodright	23	1	526	buono
11819	11:01	3.0.6.0	7	8	badgood	36	Plaingoodright	18	0	405	gloria
11819	11:01	3.0.6.0	7	8	badgood	38	Plaingoodright	23	1	860	buono
11819	11:01	3.0.6.0	7	8	badgood	40	Plainbadleft	23	0	333	male
11819	11:01	3.0.6.0	7	10	PracticeWhitegood	1	reminder	57	1	8150	Controlla le categorie - premi SPAZIO per cominciare
11819	11:01	3.0.6.0	7	10	PracticeWhitegood	2	Plaingoodright	23	1	612	gioia
11819	11:01	3.0.6.0	7	10	PracticeWhitegood	4	PlainBlackleft	18	1	542	bm23.jpg
11819	11:01	3.0.6.0	7	10	PracticeWhitegood	6	PlainWhiteright	23	1	538	wf3.jpg
11819	11:01	3.0.6.0	7	10	PracticeWhitegood	8	PlainBlackleft	18	1	470	bm56.jpg
11819	11:01	3.0.6.0	7	10	PracticeWhitegood	10	Plaingoodright	23	1	499	felicità
11819	11:01	3.0.6.0	7	10	PracticeWhitegood	12	PlainBlackleft	18	1	495	bf56.jpg
11819	11:01	3.0.6.0	7	10	PracticeWhitegood	14	PlainWhiteright	18	0	579	wf6.jpg
11819	11:01	3.0.6.0	7	10	PracticeWhitegood	16	Plaingoodright	23	1	453	gloria
11819	11:01	3.0.6.0	7	10	PracticeWhitegood	18	Plaingoodright	23	1	463	piacere
